time,seconds_elapsed,z,y,x
1791103772796965000,0.050965087890625,0.0364772267639637,0.24371464550495148,-0.16247914731502533
1791103772806937300,0.060937255859375,0.089830681681633,0.1225661039352417,0.27432069182395935
1791103772816909000,0.070908935546875,-0.08656672388315201,0.19486454129219055,-0.09523230046033859
1791103772826881300,0.08088134765625,0.04726843163371086,0.15771323442459106,-0.020776908844709396
1791103772836853000,0.09085302734375,-0.04015595465898514,0.07760241627693176,0.06985045969486237
1791103772846825200,0.1008251953125,-0.05273429676890373,0.09631140530109406,-0.1572859287261963
1791103772856797200,0.110797119140625,-0.14074724912643433,0.15081298351287842,-0.2401009052991867
1791103772866768100,0.12076806640625,-0.15540224313735962,-0.05371265485882759,0.16083090007305145
1791103772876740000,0.130739990234375,-0.22903650999069214,-0.023472195491194725,-0.10835742950439453
1791103772886712000,0.140712158203125,-0.24722163379192352,-0.02852434478700161,-0.22750724852085114
1791103772896684300,0.150684326171875,-0.3736349642276764,-0.15713025629520416,0.2625063955783844
1791103772906656000,0.160656005859375,-0.22858768701553345,-0.10559698939323425,0.02138693444430828
1791103772916628200,0.170628173828125,-0.33159902691841125,-0.05576764792203903,-0.09071110934019089
1791103772926600200,0.18060009765625,-0.21604838967323303,-0.15443013608455658,0.0472927987575531
1791103772936572200,0.190572265625,-0.35480841994285583,-0.1312830150127411,-0.0180012509226799
1791103772946544000,0.200544189453125,-0.16461046040058136,-0.13389568030834198,-0.1423092484474182
1791103772956515000,0.21051513671875,-0.27713245153427124,-0.054873302578926086,-0.27252504229545593
1791103772966487300,0.2204873046875,-0.3628300130367279,-0.2572994530200958,0.3154308497905731
1791103772976459000,0.230458984375,-0.3090711534023285,-0.1591007262468338,0.007904191501438618
1791103772986431200,0.24043115234375,-0.24912041425704956,-0.20687462389469147,-0.10707686841487885
1791103772996403200,0.2504033203125,-0.3134472072124481,-0.26369422674179077,0.45131611824035645
1791103773006375200,0.260375244140625,-0.3272383511066437,-0.12127967923879623,0.12040486931800842
1791103773016347100,0.27034716796875,-0.2045409381389618,-0.21575798094272614,0.044058430939912796
1791103773026319000,0.280319091796875,-0.2843148112297058,-0.13770122826099396,-0.014682421460747719
1791103773036290000,0.2902900390625,-0.2310347855091095,-0.16319140791893005,0.13495714962482452
1791103773046262000,0.300261962890625,-0.23902392387390137,-0.08449868112802505,0.01613323949277401
1791103773056234200,0.310234130859375,-0.24304530024528503,-0.06214011460542679,-0.05566265434026718
1791103773066206200,0.320206298828125,-0.11919290572404861,-0.04068318009376526,-0.026416728273034096
1791103773076178200,0.33017822265625,-0.07660257071256638,-0.051431965082883835,-0.05766173452138901
1791103773086150100,0.340150146484375,-0.11317858099937439,-0.14944076538085938,0.2855534851551056
1791103773096122000,0.3501220703125,-0.12881559133529663,0.07391216605901718,-0.20369449257850647
1791103773106094000,0.360093994140625,-0.20776820182800293,-0.028168927878141403,0.27945005893707275
1791103773116066300,0.37006640625,-0.1863957941532135,-0.0019940484780818224,0.023375684395432472
1791103773126037200,0.380037353515625,-0.06763053685426712,-0.021113283932209015,-0.004643438849598169
1791103773136009200,0.39000927734375,-0.09896315634250641,-0.045957379043102264,0.032894086092710495
1791103773145981200,0.399981201171875,-0.17860659956932068,-0.0677388459444046,-0.0868682861328125
1791103773155953200,0.409953125,-0.1581934690475464,-0.08734849840402603,-0.05347198247909546
1791103773165925000,0.419925048828125,-0.04694637283682823,-0.1985221803188324,0.09867819398641586
1791103773175897000,0.42989697265625,-0.24486477673053741,-0.15467190742492676,0.05533897876739502
1791103773185869300,0.439869384765625,-0.28292110562324524,-0.18968677520751953,0.054401420056819916
1791103773195841000,0.449841064453125,-0.3100709617137909,-0.2720181345939636,0.28900378942489624
1791103773205812200,0.459812255859375,-0.10886421799659729,-0.20273499190807343,-0.08918032795190811
1791103773215784200,0.4697841796875,-0.1568056344985962,-0.1694430708885193,-0.04064048081636429
1791103773225756200,0.479756103515625,-0.14864537119865417,-0.25511279702186584,0.07249906659126282
1791103773235728100,0.48972802734375,-0.14902301132678986,-0.189667209982872,-0.22154293954372406
1791103773245700000,0.4997001953125,-0.03273935616016388,-0.15983079373836517,-0.23212496936321259
1791103773255672300,0.50967236328125,-0.30938613414764404,-0.2001419961452484,0.08290434628725052
1791103773265644000,0.51964404296875,-0.18106819689273834,-0.29013729095458984,-0.0021756247151643038
1791103773275616300,0.5296162109375,-0.15227968990802765,-0.28954529762268066,-0.0172568392008543
1791103773285588000,0.539587890625,-0.17387600243091583,-0.3459944427013397,0.11191939562559128
1791103773295559200,0.54955908203125,-0.17697273194789886,-0.2815936207771301,-0.1205253005027771
1791103773305531100,0.55953125,-0.0916537269949913,-0.3027450144290924,0.1503281146287918
1791103773315503000,0.569503173828125,-0.1372009664773941,-0.29808104038238525,0.10058824717998505
1791103773325475300,0.579475341796875,-0.115887850522995,-0.24524253606796265,-0.18681631982326508
1791103773335447000,0.589447021484375,-0.09159982204437256,-0.1875278353691101,-0.2833540439605713
1791103773345419300,0.599419189453125,-0.09192278236150742,-0.22427237033843994,-0.11708597838878632
1791103773355391000,0.609390869140625,-0.10098765045404434,-0.17162619531154633,-0.07887281477451324
1791103773365363200,0.61936328125,-0.009843703359365463,-0.17983956634998322,0.08718596398830414
1791103773375335200,0.629335205078125,0.022565636783838272,-0.1673661172389984,0.05357234179973602
1791103773385306000,0.63930615234375,0.0018056854605674744,-0.22306416928768158,0.22268018126487732
1791103773395278300,0.6492783203125,0.03128048777580261,-0.2089046686887741,0.13617511093616486
1791103773405250000,0.65925,-0.05376851558685303,-0.221495121717453,0.3179894685745239
1791103773415222300,0.66922216796875,0.11199195683002472,-0.11444801837205887,-0.15340656042099
1791103773425194000,0.679194091796875,-0.05173058435320854,-0.05803117901086807,-0.14812715351581573
1791103773435166200,0.689166259765625,0.019568094983696938,-0.11889906227588654,0.3218501806259155
1791103773445138200,0.69913818359375,0.09517718106508255,0.004264987073838711,-0.189438134431839
1791103773455110100,0.709110107421875,0.16665509343147278,0.04990491271018982,-0.09456861019134521
1791103773465081000,0.7190810546875,0.05239330604672432,-0.02021981216967106,-0.04883285611867905
1791103773475053000,0.729052978515625,0.08195199072360992,-0.021400656551122665,0.03171418607234955
1791103773485025300,0.739025390625,0.20727849006652832,0.09507016837596893,-0.325971782207489
1791103773494997000,0.7489970703125,-0.01252950169146061,0.025030624121427536,-0.17391541600227356
1791103773504969200,0.75896923828125,0.02447085827589035,-0.07956182956695557,0.22920995950698853
1791103773514941200,0.768941162109375,0.13720059394836426,0.07312119007110596,-0.2649875283241272
1791103773524913200,0.7789130859375,0.055868107825517654,-0.07969515025615692,0.004558514803647995
1791103773534885000,0.788885009765625,0.05844445154070854,-0.06933705508708954,-0.02736080065369606
1791103773544856000,0.79885595703125,-0.04100622609257698,-0.03454619273543358,0.1548372209072113
1791103773554828300,0.808828369140625,-0.03187398239970207,-0.03397015109658241,0.11727465689182281
1791103773564800000,0.818800048828125,0.0006134165450930595,-0.010351350530982018,0.006175699643790722
1791103773574772200,0.828772216796875,0.14935016632080078,0.022468114271759987,-0.0822305977344513
1791103773584744200,0.838744140625,0.11179719865322113,0.05542778968811035,-0.03948739916086197
1791103773594716200,0.848716064453125,0.1332380473613739,0.017845796421170235,0.08383800089359283
1791103773604688100,0.858688232421875,0.29580384492874146,-0.005106771364808083,-0.03819805011153221
1791103773614660000,0.86866015625,0.1380123347043991,-0.011456279084086418,0.0883210077881813
1791103773624632000,0.878632080078125,0.059960637241601944,0.032221004366874695,-0.1461174339056015
1791103773634603000,0.88860302734375,0.12871333956718445,0.037886083126068115,-0.02175207808613777
1791103773644575200,0.8985751953125,0.23228883743286133,0.07014741003513336,-0.41266995668411255
1791103773654547200,0.908547119140625,0.11915456503629684,0.07246622443199158,-0.17601561546325684
1791103773664519200,0.918519287109375,-0.025549814105033875,0.099434494972229,0.29682832956314087
1791103773674491100,0.9284912109375,0.14295850694179535,0.09381788223981857,0.0019679353572428226
1791103773684463000,0.938463134765625,0.21342355012893677,0.10237165540456772,-0.2199857383966446
1791103773694435000,0.94843505859375,0.2714194655418396,0.05868383124470711,0.025270089507102966
1791103773704407300,0.9584072265625,0.12647061049938202,0.09654483199119568,-0.13100665807724
1791103773714378200,0.968378173828125,0.006435016170144081,0.17781385779380798,-0.05876707658171654
1791103773724350200,0.97835009765625,0.17424780130386353,0.16943439841270447,-0.03480130434036255
1791103773734322200,0.988322265625,0.23838762938976288,0.14736637473106384,-0.003062551375478506
1791103773744294100,0.998294189453125,0.13135074079036713,0.1374092400074005,0.31037816405296326
1791103773754266000,1.00826611328125,0.11241406947374344,0.13187094032764435,0.08858371526002884
1791103773764238000,1.018238037109375,0.0800304114818573,0.11339238286018372,-0.07184290885925293
1791103773774210300,1.028210205078125,0.06703152507543564,0.07207850366830826,0.3385360836982727
1791103773784182000,1.03818212890625,0.12502668797969818,0.02496187575161457,0.2796425223350525
1791103773794153200,1.0481533203125,0.0955931693315506,0.052187904715538025,-0.04221167042851448
1791103773804125200,1.058125244140625,0.0055287848226726055,0.09739719331264496,0.28175225853919983
1791103773814097200,1.06809716796875,0.05938904732465744,0.12858811020851135,0.08627267926931381
1791103773824069000,1.078069091796875,0.221360981464386,0.058698952198028564,0.0951945036649704
1791103773834041000,1.088041015625,0.10855267941951752,0.08827202767133713,0.1802462786436081
1791103773844013300,1.098013427734375,0.058767881244421005,0.1395295262336731,0.10518959164619446
1791103773853985000,1.107985107421875,0.05518406257033348,0.09360331296920776,0.09331642091274261
1791103773863957200,1.117957275390625,-0.0464186817407608,0.11070295423269272,-0.18642456829547882
1791103773873929000,1.127928955078125,-0.068155936896801,-0.019520826637744904,0.3205629885196686
1791103773883900200,1.137900146484375,-0.11880405247211456,0.07603679597377777,-0.18267734348773956
1791103773893872000,1.1478720703125,-0.13765017688274384,-0.04910007864236832,0.2320290356874466
1791103773903844000,1.157843994140625,-0.07365730404853821,-0.010222837328910828,0.08909624814987183
1791103773913816300,1.16781640625,-0.0452730655670166,-0.013514239341020584,-0.06814210116863251
1791103773923788000,1.1777880859375,-0.0660349577665329,-0.0692211166024208,0.007699986454099417
1791103773933760300,1.18776025390625,-0.04166224226355553,-0.06401410698890686,0.06038450449705124
1791103773943732000,1.19773193359375,-0.10062306374311447,-0.03210599347949028,-0.07312652468681335
1791103773953704200,1.2077041015625,-0.10924957692623138,-0.01134372316300869,-0.09188396483659744
1791103773963675100,1.217675048828125,-0.19775985181331635,-0.07996238768100739,0.024010611698031425
1791103773973647000,1.227647216796875,-0.07899990677833557,-0.0696524977684021,-0.0015895571559667587
1791103773983619300,1.237619384765625,-0.1069265753030777,-0.12977373600006104,0.17283695936203003
1791103773993591000,1.247591064453125,-0.09589816629886627,-0.07753423601388931,-0.21497948467731476
1791103774003563300,1.257563232421875,-0.2128552943468094,-0.20455710589885712,0.4158126711845398
1791103774013535000,1.267534912109375,-0.07591023296117783,-0.09074239432811737,-0.38665661215782166
1791103774023507200,1.277507080078125,-0.20869165658950806,-0.15195590257644653,-0.08994002640247345
1791103774033479200,1.287479248046875,-0.1080518588423729,-0.13661476969718933,-0.055843837559223175
1791103774043451100,1.297451171875,-0.03621219843626022,-0.12810645997524261,-0.3630288541316986
1791103774053422300,1.30742236328125,-0.0881294533610344,-0.1485997587442398,-0.2896561026573181
1791103774063394000,1.31739404296875,-0.14733633399009705,-0.16062206029891968,-0.022450236603617668
1791103774073366300,1.3273662109375,-0.23250769078731537,-0.06794298440217972,-0.41396287083625793
1791103774083338000,1.337337890625,-0.025925733149051666,-0.24729956686496735,-0.04700060188770294
1791103774093310200,1.347310302734375,-0.17098066210746765,-0.21564151346683502,-0.20601049065589905
1791103774103282200,1.3572822265625,-0.152144193649292,-0.18860167264938354,-0.07280181348323822
1791103774113254100,1.367254150390625,-0.08874738961458206,-0.24882745742797852,0.13743504881858826
1791103774123226000,1.37722607421875,-0.14121006429195404,-0.14404098689556122,-0.3041090667247772
1791103774133197000,1.387197021484375,-0.10118833929300308,-0.12257645279169083,0.2279449850320816
1791103774143169300,1.397169189453125,-0.012161227874457836,0.00419177021831274,-0.3219185769557953
1791103774153141000,1.40714111328125,0.008160822093486786,-0.08906760811805725,0.11709688603878021
1791103774163113200,1.41711328125,-0.03445504605770111,0.004026141948997974,0.001672673039138317
1791103774173085200,1.427085205078125,0.14504466950893402,0.029924316331744194,-0.2368890345096588
1791103774183057200,1.43705712890625,0.06205708160996437,-0.04480693116784096,0.14311514794826508
1791103774193029000,1.447029052734375,0.14657409489154816,-0.0353122316300869,-0.07439026236534119
1791103774203001000,1.4570009765625,0.0022791563533246517,0.024754663929343224,-0.11681544035673141
1791103774212972300,1.46697216796875,0.10246967524290085,-0.012441441416740417,0.06927266716957092
1791103774222944000,1.476944091796875,0.08105441182851791,0.011866321787238121,0.06353102624416351
1791103774232916200,1.486916259765625,0.18458214402198792,0.01462828740477562,-0.11814182996749878
1791103774242888200,1.49688818359375,0.10911034047603607,0.02022746205329895,-0.2220476120710373
1791103774252860200,1.506860107421875,0.045086346566677094,-0.07777021080255508,0.08511524647474289
1791103774262832000,1.51683203125,0.007071625906974077,-0.09466288983821869,-0.033830489963293076
1791103774272804000,1.52680419921875,0.035197269171476364,-0.10400232672691345,-0.08555839955806732
1791103774282776000,1.536776123046875,0.039434656500816345,-0.0935475304722786,0.05495411902666092
1791103774292748300,1.546748291015625,0.006066046189516783,-0.15709109604358673,0.22356097400188446
1791103774302719200,1.55671923828125,0.08515934646129608,-0.13169807195663452,0.03438568860292435
1791103774312691200,1.566691162109375,0.012135470286011696,-0.12902212142944336,0.16287894546985626
1791103774322663200,1.5766630859375,-0.021044272929430008,-0.17553888261318207,0.22066326439380646
1791103774332635100,1.58663525390625,-0.024702925235033035,-0.1629570573568344,0.008638081140816212
1791103774342607000,1.596607177734375,0.06844421476125717,-0.13418790698051453,0.01805228553712368
1791103774352579000,1.6065791015625,0.0013189739547669888,-0.08782865852117538,-0.18694934248924255
1791103774362551000,1.616551025390625,0.06308525055646896,-0.06599108874797821,-0.09610910713672638
1791103774372522800,1.626522705078125,0.11289568245410919,-0.029303379356861115,0.09368133544921875
1791103774382494000,1.636493896484375,0.20330630242824554,0.030789140611886978,-0.18239407241344452
1791103774392466000,1.6464658203125,0.18452782928943634,-0.006106292828917503,0.19675405323505402
1791103774402438000,1.65643798828125,0.1768462061882019,0.0650460496544838,-0.17933650314807892
1791103774412410000,1.66641015625,0.10526017099618912,-0.002671214984729886,0.24738311767578125
1791103774422381800,1.6763818359375,0.09371194243431091,0.05681397020816803,-0.21267035603523254
1791103774432354000,1.68635400390625,0.11548221856355667,0.027190029621124268,0.11174605786800385
1791103774442325800,1.69632568359375,0.1808476448059082,0.044325076043605804,0.03102724626660347
1791103774452298000,1.706298095703125,0.1423279494047165,0.12794966995716095,-0.23416367173194885
1791103774462270000,1.71627001953125,0.17345260083675385,0.09491849690675735,0.20556744933128357
1791103774472241000,1.726240966796875,0.13253633677959442,0.11928508430719376,0.08955296874046326
1791103774482213000,1.736213134765625,0.1574057787656784,0.1596481055021286,-0.3826937973499298
1791103774492184800,1.746184814453125,0.035246849060058594,0.09621401131153107,0.17142345011234283
1791103774502157000,1.756156982421875,0.06452707946300507,0.10054969042539597,-0.0016640782123431563
1791103774512128800,1.766128662109375,0.1644161343574524,0.11513929069042206,-0.25188136100769043
1791103774522101000,1.77610107421875,0.16664394736289978,0.08710955083370209,0.21926426887512207
1791103774532073000,1.786072998046875,0.09512368589639664,0.10431117564439774,0.12007909268140793
1791103774542045000,1.796044921875,0.17154762148857117,0.18927015364170074,-0.2714700400829315
1791103774552016100,1.80601611328125,0.10870447754859924,0.054404739290475845,0.3267830014228821
1791103774561987800,1.81598779296875,-0.0030680568888783455,0.05984268710017204,0.3129856586456299
1791103774571960000,1.8259599609375,0.07340727746486664,0.12061655521392822,-0.19487543404102325
1791103774581931800,1.835931884765625,-0.014918015338480473,0.02683202549815178,0.2696252465248108
1791103774591904000,1.845904052734375,-0.08353009819984436,0.07348714023828506,0.028476808220148087
1791103774601876000,1.8558759765625,0.06618741154670715,0.11908268928527832,-0.07515420764684677
1791103774611848000,1.865847900390625,0.08315734565258026,0.14110995829105377,-0.12883128225803375
1791103774621820000,1.87581982421875,-0.07162842899560928,-0.015688937157392502,0.17738080024719238
1791103774631790800,1.885790771484375,-0.1404820680618286,0.017985668033361435,0.1429503858089447
1791103774641763000,1.89576318359375,0.0725482627749443,0.06337662041187286,-0.12333965301513672
1791103774651734800,1.90573486328125,-0.13710564374923706,-0.013870492577552795,0.02034134976565838
1791103774661707000,1.91570703125,-0.09285321831703186,-0.08364637941122055,0.025537708774209023
1791103774671679000,1.925678955078125,-0.2233704924583435,0.029925724491477013,-0.14944422245025635
1791103774681651000,1.93565087890625,-0.13402435183525085,-0.047646962106227875,0.17814111709594727
1791103774691623000,1.945622802734375,-0.0883125364780426,-0.04694309085607529,0.15029482543468475
1791103774701595000,1.955594970703125,-0.055558159947395325,-0.022009968757629395,0.025838037952780724
1791103774711566000,1.965566162109375,-0.13183002173900604,-0.004624853376299143,0.08996029943227768
1791103774721537800,1.975537841796875,-0.19495254755020142,-0.0592004768550396,0.3652438223361969
1791103774731510000,1.985510009765625,-0.058968883007764816,0.05046689882874489,-0.3711870610713959
1791103774741482000,1.99548193359375,-0.11478770524263382,0.008548988029360771,0.20086140930652618
1791103774751454000,2.005453857421875,-0.10816974937915802,0.027449442073702812,0.01719597354531288
1791103774761426000,2.015426025390625,-0.08956105262041092,0.03147220239043236,0.05963670462369919
1791103774771398000,2.02539794921875,-0.05140994116663933,0.08425366133451462,-0.17729967832565308
1791103774781369900,2.035369873046875,-0.0660758912563324,0.060059405863285065,-0.08777888864278793
1791103774791342000,2.045342041015625,-0.12612272799015045,0.0709269717335701,-0.0705849900841713
1791103774801313000,2.05531298828125,-0.13894465565681458,0.07366608828306198,-0.11411507427692413
1791103774811285000,2.065284912109375,-0.16641196608543396,0.05055730789899826,-0.20865677297115326
1791103774821257000,2.075257080078125,-0.1541513055562973,-0.047070179134607315,0.14354576170444489
1791103774831229000,2.08522900390625,-0.10561680793762207,0.03587024286389351,-0.19320696592330933
1791103774841201000,2.095200927734375,-0.14623893797397614,0.01320519857108593,-0.061714645475149155
1791103774851172900,2.1051728515625,-0.25274595618247986,-0.017937805503606796,0.38888317346572876
1791103774861145000,2.11514501953125,-0.12360785901546478,0.008902767673134804,0.04992689564824104
1791103774871116800,2.12511669921875,-0.0883856862783432,0.02981790155172348,0.03587845712900162
1791103774881088000,2.135087890625,-0.06433562934398651,-0.027578486129641533,0.17965833842754364
1791103774891060000,2.14506005859375,-0.09574361890554428,-0.05659069865942001,0.11275867372751236
1791103774901032000,2.155031982421875,-0.231623575091362,-0.073018878698349,0.10747157037258148
1791103774911004000,2.16500390625,-0.24787339568138123,-0.11417004466056824,0.6780948638916016
1791103774920976000,2.174975830078125,-0.20208048820495605,-0.07923943549394608,-0.0869247168302536
1791103774930948000,2.184947998046875,-0.16135543584823608,-0.1389448493719101,0.053484056144952774
1791103774940919800,2.194919921875,-0.1903449296951294,-0.06299464404582977,-0.028488613665103912
1791103774950892000,2.20489208984375,-0.1214529424905777,-0.08996634185314178,0.031724926084280014
1791103774960863000,2.214863037109375,-0.17938461899757385,-0.08916296064853668,-0.25471779704093933
1791103774970835000,2.2248349609375,-0.1556270867586136,-0.05274450033903122,-0.19882416725158691
1791103774980807000,2.234806884765625,-0.08291273564100266,-0.07394157350063324,0.13332051038742065
1791103774990779000,2.24477880859375,0.04604258015751839,-0.06616593897342682,-0.1497170478105545
1791103775000751000,2.254751220703125,-0.05740053579211235,-0.08406095951795578,0.019108233973383904
1791103775010722800,2.264722900390625,0.007442108355462551,-0.13910557329654694,-0.10834745317697525
1791103775020695000,2.274695068359375,-0.13528940081596375,-0.11500152200460434,-0.1997208297252655
1791103775030666800,2.284666748046875,-0.19246506690979004,-0.19736270606517792,0.324677973985672
1791103775040638000,2.294637939453125,-0.03053892031311989,-0.17770211398601532,0.37105700373649597
1791103775050610000,2.30460986328125,0.06738018989562988,-0.14604219794273376,-0.07905903458595276
1791103775060582000,2.314581787109375,0.059773147106170654,-0.12951834499835968,0.0010128901340067387
1791103775070554000,2.32455419921875,-0.02805018052458763,-0.2169797569513321,0.30060651898384094
1791103775080525800,2.33452587890625,0.02311382070183754,-0.2014092355966568,0.21620768308639526
1791103775090498000,2.344498046875,0.004129741806536913,-0.17926345765590668,-0.1658478081226349
1791103775100469800,2.3544697265625,0.0433775894343853,-0.09797897934913635,-0.22579491138458252
1791103775110442000,2.36444189453125,0.027364268898963928,-0.12762075662612915,0.21345461905002594
1791103775120414000,2.3744140625,0.03002104163169861,-0.13671639561653137,0.011651181615889072
1791103775130385000,2.384385009765625,0.03081359714269638,-0.09239499270915985,-0.39781221747398376
1791103775140357000,2.394357177734375,0.03419775143265724,-0.11964894831180573,0.34620195627212524
1791103775150328800,2.404328857421875,0.1296028345823288,-0.11166053265333176,0.01578702963888645
1791103775160301000,2.414301025390625,0.12675458192825317,-0.09537529945373535,-0.25638139247894287
1791103775170272800,2.424272705078125,-0.01839594915509224,0.0036769802682101727,-0.0391760915517807
1791103775180245000,2.434244873046875,0.16337589919567108,0.07461422681808472,-0.24912607669830322
1791103775190217000,2.444217041015625,0.16983219981193542,0.026229655370116234,-0.08274110406637192
1791103775200188000,2.45418798828125,0.19527354836463928,0.02594892308115959,-0.0023708404041826725
1791103775210160000,2.46416015625,0.22091899812221527,-0.0023945672437548637,-0.11385954916477203
1791103775220131800,2.4741318359375,0.2275216281414032,0.03822748363018036,-0.2959645688533783
1791103775230104000,2.48410400390625,0.11502836644649506,-0.04779954254627228,0.13305789232254028
1791103775240075800,2.49407568359375,0.06422561407089233,-0.17379984259605408,0.3583737313747406
1791103775250048000,2.504048095703125,0.07582741230726242,-0.16378875076770782,-0.12190607935190201
1791103775260020000,2.51402001953125,-0.051382362842559814,-0.14762450754642487,0.025499703362584114
1791103775269992000,2.523991943359375,-0.07911918312311172,-0.11485457420349121,0.11150329560041428
1791103775279964000,2.5339638671875,-0.025956716388463974,-0.07993829995393753,-0.17576971650123596
1791103775289934800,2.543934814453125,0.07179700583219528,-0.08160197734832764,-0.09086067974567413
1791103775299907000,2.553906982421875,0.1382310837507248,-0.13090232014656067,0.08548535406589508
1791103775309878800,2.563878662109375,0.12249500304460526,-0.13993549346923828,0.02988654375076294
1791103775319851000,2.57385107421875,0.06630931049585342,-0.028852220624685287,-0.2864924967288971
1791103775329823000,2.583822998046875,0.0387868732213974,-0.09001331031322479,0.06465139985084534
1791103775339795000,2.593794921875,0.0990796610713005,-0.14087428152561188,0.15036170184612274
1791103775349767000,2.603766845703125,0.019574981182813644,-0.06129290908575058,0.03659438341856003
1791103775359739000,2.61373876953125,0.09517664462327957,-0.04882006719708443,0.21067970991134644
1791103775369709800,2.623709716796875,0.11101366579532623,0.005867145024240017,-0.2657880187034607
1791103775379681800,2.633681884765625,-0.035768892616033554,-0.06851349771022797,-0.18637746572494507
1791103775389654000,2.643654052734375,-0.0189017616212368,-0.07564464956521988,-0.1609719842672348
1791103775399625700,2.653625732421875,0.0253855362534523,-0.14421504735946655,0.007403985597193241
1791103775409598000,2.663597900390625,-0.0818791314959526,-0.08618050813674927,-0.12003307044506073
1791103775419569700,2.673569580078125,-0.04754498600959778,-0.20072777569293976,0.2158532589673996
1791103775429542000,2.6835419921875,-0.053064119070768356,-0.060811154544353485,-0.2665677070617676
1791103775439513900,2.693513916015625,-0.11656011641025543,-0.16495466232299805,0.20385776460170746
1791103775449484800,2.70348486328125,-0.1258137971162796,-0.20885740220546722,-0.10904447734355927
1791103775459457000,2.71345703125,0.05160441994667053,-0.24884074926376343,-0.2735390365123749
1791103775469428700,2.7234287109375,0.03623877838253975,-0.1665583848953247,0.16581116616725922
1791103775479401000,2.73340087890625,-0.09334595501422882,-0.20320434868335724,0.1757233738899231
1791103775489372700,2.74337255859375,0.03787811100482941,-0.1757809817790985,-0.2430642992258072
1791103775499345000,2.753344970703125,0.15150083601474762,-0.16200818121433258,0.03864193335175514
1791103775509316900,2.76331689453125,-0.08766195178031921,-0.0334257036447525,-0.12356028705835342
1791103775519288800,2.773288818359375,0.02040257304906845,-0.08716291189193726,-0.20997577905654907
1791103775529260000,2.783260009765625,0.026023976504802704,-0.03664221614599228,-0.07169726490974426
1791103775539231700,2.793231689453125,0.2229815125465393,-0.005781230051070452,-0.07067593187093735
1791103775549204000,2.803203857421875,0.2625938951969147,-0.07464445382356644,0.15150199830532074
1791103775559175700,2.81317578125,0.21562707424163818,0.01878291182219982,-0.13131140172481537
1791103775569148000,2.82314794921875,0.17087344825267792,-0.016277872025966644,0.2389974147081375
1791103775579119900,2.833119873046875,0.11530756950378418,-0.042417630553245544,0.2364690601825714
1791103775589091800,2.843091796875,0.28540393710136414,0.07551193237304688,0.02067444659769535
1791103775599063800,2.853063720703125,0.21523350477218628,0.1182439997792244,0.09192445874214172
1791103775609034800,2.86303466796875,0.22349223494529724,0.1563575714826584,-0.03125765547156334
1791103775619007000,2.873007080078125,0.2252093255519867,0.231867715716362,-0.11694600433111191
1791103775628978700,2.882978759765625,0.42001208662986755,0.19721652567386627,0.19933100044727325
1791103775638951000,2.892950927734375,0.3824547827243805,0.23231790959835052,0.05684325844049454
1791103775648923000,2.9029228515625,0.48312655091285706,0.26333707571029663,-0.11386643350124359
1791103775658894800,2.912894775390625,0.36572685837745667,0.27020570635795593,0.006642711814492941
1791103775668866800,2.92286669921875,0.35822445154190063,0.21689878404140472,0.06106467545032501
1791103775678838800,2.9328388671875,0.28385335206985474,0.21823187172412872,-0.2552879750728607
1791103775688810000,2.94281005859375,0.36395135521888733,0.2416762113571167,0.11609729379415512
1791103775698781700,2.95278173828125,0.3045789897441864,0.19253495335578918,0.25171032547950745
1791103775708754000,2.96275390625,0.22443167865276337,0.149025559425354,-0.025037389248609543
1791103775718726000,2.972725830078125,0.22928856313228607,0.15579256415367126,0.07685085386037827
1791103775728697900,2.98269775390625,0.27321258187294006,0.1357828974723816,-0.07589421421289444
1791103775738669800,2.992669921875,0.12122999131679535,0.1180032342672348,0.2077212631702423
1791103775748641800,3.002641845703125,0.2584613561630249,0.12813976407051086,-0.08248500525951385
1791103775758613800,3.01261376953125,0.3178231716156006,0.08671829849481583,-0.08824621886014938
1791103775768584700,3.022584716796875,0.1881975382566452,0.14126622676849365,-0.167952761054039
1791103775778557000,3.032556884765625,0.2320389300584793,0.12786658108234406,0.09574872255325317
1791103775788529000,3.04252880859375,0.2924140989780426,0.18778930604457855,-0.350222110748291
1791103775798500900,3.0525009765625,0.19377298653125763,0.00545782083645463,0.24659964442253113
1791103775808472800,3.062472900390625,0.08863404393196106,0.12518900632858276,-0.14921560883522034
1791103775818444800,3.07244482421875,0.2608533799648285,0.15600945055484772,-0.32498300075531006
1791103775828416800,3.082416748046875,0.1577107459306717,0.16494089365005493,-0.29698464274406433
1791103775838389000,3.092388916015625,0.14332646131515503,0.14559368789196014,-0.24320687353610992
1791103775848360000,3.10235986328125,0.18073108792304993,0.20250065624713898,-0.06484753638505936
1791103775858332000,3.112331787109375,0.2669808864593506,0.23720182478427887,-0.11047326773405075
1791103775868304000,3.122303955078125,0.22307734191417694,0.1787925809621811,0.17121487855911255
1791103775878275800,3.13227587890625,0.24054120481014252,0.23268428444862366,-0.032111573964357376
1791103775888247800,3.142247802734375,0.21577088534832,0.2952459454536438,-0.07141716778278351
1791103775898219800,3.1522197265625,0.14129719138145447,0.16970038414001465,0.4043549597263336
1791103775908192000,3.16219189453125,0.13995414972305298,0.2774774432182312,0.03839587792754173
1791103775918163700,3.172163818359375,0.24589306116104126,0.37318798899650574,-0.20697805285453796
1791103775928135000,3.182135009765625,0.31484362483024597,0.35746467113494873,0.11115971207618713
1791103775938107000,3.19210693359375,0.42341771721839905,0.3782198429107666,-0.14559081196784973
1791103775948078800,3.202078857421875,0.27770179510116577,0.4329952001571655,-0.04841712862253189
1791103775958050800,3.21205078125,0.24115048348903656,0.4133092761039734,0.06744913011789322
1791103775968022800,3.222022705078125,0.11803679913282394,0.4282788932323456,-0.09174611419439316
1791103775977995000,3.2319951171875,0.2977122962474823,0.4210842549800873,-0.13338303565979004
1791103775987966700,3.241966796875,0.20651020109653473,0.37015262246131897,0.051621437072753906
1791103775997939000,3.25193896484375,0.11223229020833969,0.4330344498157501,-0.24625998735427856
1791103776007910000,3.261909912109375,0.10374532639980316,0.30054616928100586,0.1990056335926056
1791103776017881900,3.2718818359375,0.0947905108332634,0.36420387029647827,0.012618684209883213
1791103776027853800,3.281853759765625,0.06496630609035492,0.28448694944381714,0.13487295806407928
1791103776037825800,3.29182568359375,0.12643438577651978,0.3255274295806885,0.016775384545326233
1791103776047798000,3.301798095703125,0.043644700199365616,0.2010912150144577,0.10541284084320068
1791103776057769700,3.311769775390625,-0.09916038066148758,0.11992378532886505,0.08664606511592865
1791103776067742000,3.321741943359375,-0.09747486561536789,0.15915481746196747,0.08924105018377304
1791103776077713700,3.331713623046875,-0.09601700305938721,0.1622856855392456,-0.012770554982125759
1791103776087684900,3.341684814453125,-0.22280557453632355,0.01630663312971592,0.2316407859325409
1791103776097656800,3.35165673828125,-0.21175236999988556,0.03970435634255409,-0.011210215277969837
1791103776107628800,3.36162890625,-0.19640590250492096,-0.017819387838244438,0.03728941082954407
1791103776117601000,3.37160107421875,-0.2490970641374588,-0.04862510412931442,0.08035964518785477
1791103776127572700,3.38157275390625,-0.24341334402561188,-0.10764102637767792,0.23357397317886353
1791103776137545000,3.391544921875,-0.20245912671089172,-0.05872999131679535,0.06076936423778534
1791103776147516700,3.4015166015625,-0.3199295699596405,-0.1270800232887268,0.1192702203989029
1791103776157489000,3.411489013671875,-0.33086317777633667,-0.09251232445240021,0.42264020442962646
1791103776167459800,3.4214599609375,-0.14074142277240753,-0.025158051401376724,-0.21017639338970184
1791103776177431800,3.431431884765625,-0.28166499733924866,-0.1127781867980957,-0.06408736109733582
1791103776187404000,3.441404052734375,-0.2390781193971634,-0.14195337891578674,0.22578440606594086
1791103776197375700,3.451375732421875,-0.18923769891262054,-0.08720909804105759,0.014875555410981178
1791103776207348000,3.461347900390625,-0.1771424263715744,-0.0258509311825037,-0.1268211305141449
1791103776217319700,3.471319580078125,-0.21215291321277618,-0.13354811072349548,0.28259745240211487
1791103776227292000,3.4812919921875,-0.2109193354845047,0.026362190023064613,-0.10008176416158676
1791103776237264000,3.491263916015625,-0.12096519768238068,-0.0421445406973362,0.02664460986852646
1791103776247234800,3.50123486328125,-0.1631866842508316,-0.004559083841741085,0.11455874890089035
1791103776257207000,3.51120703125,-0.1102343425154686,0.027215294539928436,0.11644791066646576
1791103776267178800,3.5211787109375,-0.09102336317300797,0.14405030012130737,-0.19024810194969177
1791103776277151000,3.53115087890625,-0.1449180692434311,0.060594405978918076,0.047380588948726654
1791103776287122700,3.541122802734375,-0.20249880850315094,0.08484835177659988,-0.026795372366905212
1791103776297095000,3.551094970703125,-0.09413419663906097,0.12906162440776825,-0.10498355329036713
1791103776307067000,3.56106689453125,0.008583923801779747,0.07948847860097885,0.008587222546339035
1791103776317038800,3.571038818359375,-0.06627731770277023,0.08294618129730225,-0.01817685179412365
1791103776327009800,3.581009765625,-0.13568755984306335,0.09158574044704437,-0.019422411918640137
1791103776336981800,3.590981689453125,-0.2286415696144104,0.08594205230474472,0.23546919226646423
1791103776346954000,3.6009541015625,-0.10152143239974976,0.07137402147054672,0.04968281090259552
1791103776356926500,3.610926513671875,-0.07889921218156815,0.03658967465162277,-0.023337870836257935
1791103776366898400,3.6208984375,-0.1363486647605896,0.060753874480724335,-0.167312890291214
1791103776376870400,3.630870361328125,-0.14368143677711487,0.09136409312486649,-0.08826425671577454
1791103776386842400,3.64084228515625,-0.19930049777030945,0.022043075412511826,-0.027668550610542297
1791103776396814300,3.650814453125,-0.08845258504152298,-0.038220152258872986,-0.10392455011606216
1791103776406785500,3.66078564453125,-0.18864843249320984,0.06171070411801338,-0.08359291404485703
1791103776416757200,3.67075732421875,-0.24713891744613647,-0.07992178201675415,-0.05904948338866234
1791103776426729500,3.6807294921875,-0.3175382614135742,-0.07062335312366486,-0.08428480476140976
1791103776436701400,3.690701416015625,-0.30313828587532043,-0.19688785076141357,0.29217633605003357
1791103776446673400,3.70067333984375,-0.3979761004447937,-0.16845300793647766,-0.22375918924808502
1791103776456645400,3.710645263671875,-0.2768758535385132,-0.26895302534103394,-0.00880664587020874
1791103776466617300,3.720617431640625,-0.3526686131954193,-0.2648720145225525,0.2231357842683792
1791103776476589600,3.730589599609375,-0.37391284108161926,-0.3110290467739105,-0.26962974667549133
1791103776486560300,3.740560302734375,-0.27288398146629333,-0.34577476978302,-0.1061585322022438
1791103776496532500,3.750532470703125,-0.3121469020843506,-0.22991059720516205,-0.07359769195318222
1791103776506504400,3.76050439453125,-0.2708641588687897,-0.15737567842006683,-0.24500273168087006
1791103776516476400,3.770476318359375,-0.16941283643245697,-0.25414228439331055,-0.2016579657793045
1791103776526448400,3.780448486328125,-0.12194225192070007,-0.25466930866241455,0.03761720657348633
1791103776536420400,3.79042041015625,-0.3312278687953949,-0.2673777937889099,0.470468133687973
1791103776546392300,3.800392333984375,-0.15132761001586914,-0.15401394665241241,0.009517816826701164
1791103776556364500,3.810364501953125,-0.18380926549434662,-0.2839512825012207,0.5605427026748657
1791103776566335500,3.82033544921875,-0.0655428096652031,-0.107211634516716,-0.08168845623731613
1791103776576307500,3.830307373046875,-0.09936396777629852,-0.15813305974006653,0.2166742980480194
1791103776586279400,3.840279541015625,-0.18835295736789703,-0.056638915091753006,-0.0073111215606331825
1791103776596251400,3.85025146484375,-0.1745363175868988,-0.08318720757961273,-0.07796420902013779
1791103776606223400,3.860223388671875,-0.03282339125871658,-0.06090213358402252,-0.05461733788251877
1791103776616195300,3.8701953125,0.1261315494775772,0.017337210476398468,-0.17595210671424866
1791103776626167600,3.88016748046875,0.005253329873085022,0.03797644376754761,0.20814841985702515
1791103776636139500,3.890139404296875,0.075919009745121,-0.04853152856230736,0.17849504947662354
1791103776646110500,3.9001103515625,0.14495187997817993,0.07612677663564682,-0.6553094983100891
1791103776656082400,3.91008251953125,0.07254795730113983,-0.07482773810625076,0.34879395365715027
1791103776666054400,3.920054443359375,-0.03583178296685219,-0.009677764028310776,0.024679793044924736
1791103776676026400,3.9300263671875,0.07984504848718643,0.0030769342556595802,-0.26697003841400146
1791103776685998300,3.939998291015625,-0.2064913809299469,-0.01295556128025055,0.5391517877578735
1791103776695970600,3.949970458984375,0.15069346129894257,0.02830243669450283,-0.10350871831178665
1791103776705942300,3.9599423828125,0.012168863788247108,4.926696419715881e-7,-0.3024769425392151
1791103776715913500,3.96991357421875,-0.008371369913220406,-0.004258607514202595,-0.07287726551294327
1791103776725885400,3.979885498046875,-0.03685760498046875,0.05574001371860504,-0.1072554811835289
1791103776735857400,3.989857421875,0.03263316676020622,-0.005626349244266748,-0.027714505791664124
1791103776745829400,3.999829345703125,-0.0008134720847010612,0.037855882197618484,-0.3101525902748108
1791103776755801300,4.00980126953125,0.03133620694279671,0.12916262447834015,-0.48699048161506653
1791103776765773600,4.019773681640625,0.13724133372306824,0.1506466120481491,-0.508126974105835
1791103776775745300,4.029745361328125,0.19855035841464996,0.13022194802761078,-0.23378238081932068
1791103776785717500,4.039717529296875,0.24469467997550964,0.0863327831029892,-0.2053810954093933
1791103776795688400,4.0496884765625,-0.028269320726394653,0.020023882389068604,-0.16483668982982635
1791103776805660400,4.059660400390625,-0.12842334806919098,-0.007895100861787796,0.11377710103988647
1791103776815632400,4.06963232421875,-0.03965603932738304,0.04848652333021164,0.012648404575884342
1791103776825604400,4.079604248046875,-0.03676251322031021,0.0032370188273489475,0.27274391055107117
1791103776835576600,4.08957666015625,0.11463060975074768,0.05957920476794243,0.1097937822341919
1791103776845548300,4.09954833984375,0.1618439257144928,0.09953993558883667,0.04237266629934311
1791103776855520500,4.1095205078125,0.06445140391588211,0.16684068739414215,0.007832908071577549
1791103776865492200,4.1194921875,0.16000854969024658,0.16327045857906342,-0.01794755645096302
1791103776875463400,4.12946337890625,0.1457422822713852,0.11445633322000504,-0.06193859502673149
1791103776885435400,4.139435302734375,0.11412443220615387,0.17837326228618622,0.062478166073560715
1791103776895407400,4.149407470703125,0.0768570527434349,0.2517545521259308,0.2514296770095825
1791103776905379600,4.159379638671875,0.1382027119398117,0.09550157934427261,0.4465770721435547
1791103776915351300,4.169351318359375,0.12867861986160278,0.2029331922531128,-0.22707003355026245
1791103776925323500,4.179323486328125,0.16266989707946777,0.09653804451227188,0.6692551970481873
1791103776935295200,4.189295166015625,0.0486174076795578,0.13326680660247803,-0.1386672407388687
1791103776945267500,4.199267333984375,-0.045463286340236664,0.1894025206565857,0.17426377534866333
1791103776955238400,4.20923828125,-0.0009748432785272598,0.14859239757061005,0.3146091103553772
1791103776965210400,4.21921044921875,0.16269557178020477,0.12404925376176834,0.12127242982387543
1791103776975182600,4.2291826171875,0.06539499759674072,0.12244661152362823,0.2727070152759552
1791103776985154300,4.239154296875,0.03769705444574356,0.1129487082362175,0.06135030835866928
1791103776995126500,4.24912646484375,-0.09820811450481415,0.057580649852752686,-0.11226819455623627
1791103777005098200,4.25909814453125,-0.1470600813627243,0.03852812945842743,0.14740492403507233
1791103777015070500,4.269070556640625,-0.053332146257162094,-0.020579906180500984,0.3251519799232483
1791103777025041400,4.27904150390625,-0.0003586774691939354,0.00033070286735892296,0.26970523595809937
1791103777035013400,4.289013427734375,-0.0032602986320853233,-0.0736607238650322,0.09781020879745483
1791103777044985600,4.298985595703125,-0.28274813294410706,0.05202582851052284,-0.40587371587753296
1791103777054957300,4.308957275390625,-0.23392139375209808,-0.16271869838237762,0.40111932158470154
1791103777064929500,4.318929443359375,-0.22737880051136017,-0.0662028044462204,0.09939301759004593
1791103777074901200,4.3289013671875,-0.1551615297794342,-0.052521973848342896,-0.1034887433052063
1791103777084873500,4.33887353515625,-0.04947344958782196,-0.04984869435429573,-0.1824919432401657
1791103777094845400,4.348845458984375,-0.11976830661296844,-0.044633250683546066,-0.02724035084247589
1791103777104816400,4.35881640625,-0.07400482147932053,-0.02479989267885685,-0.06495044380426407
1791103777114788600,4.36878857421875,-0.01980723813176155,0.0318722277879715,-0.26981377601623535
1791103777124760300,4.37876025390625,-0.28044575452804565,0.017380904406309128,0.06101474538445473
1791103777134732500,4.388732666015625,-0.11512881517410278,0.04801841825246811,-0.2961510419845581
1791103777144704300,4.398704345703125,-0.10574010759592056,-0.053950823843479156,0.11669962853193283
1791103777154676500,4.408676513671875,-0.24396751821041107,-0.0722329393029213,0.020771266892552376
1791103777164648400,4.4186484375,-0.27382421493530273,-0.058881185948848724,0.17919978499412537
1791103777174620400,4.428620361328125,-0.09143928438425064,-0.05857730284333229,-0.008016698062419891
1791103777184591600,4.438591552734375,-0.1478263884782791,-0.15414804220199585,0.2166595458984375
1791103777194563300,4.448563232421875,-0.13147702813148499,-0.05235927179455757,-0.13306139409542084
1791103777204535600,4.45853564453125,-0.12884661555290222,-0.025055211037397385,-0.3705434799194336
1791103777214507300,4.46850732421875,-0.24970385432243347,-0.01985250413417816,-0.10734988749027252
1791103777224479500,4.4784794921875,-0.2741415500640869,-0.033402133733034134,-0.05294762924313545
1791103777234451500,4.488451416015625,-0.16867363452911377,0.017914649099111557,-0.24653272330760956
1791103777244423400,4.49842333984375,-0.02948032319545746,-0.05698728933930397,0.06001044064760208
1791103777254395400,4.5083955078125,-0.07309854030609131,-0.10224512219429016,0.016133341938257217
1791103777264366300,4.518366455078125,-0.20767207443714142,-0.05084104835987091,-0.4605546295642853
1791103777274338600,4.528338623046875,-0.18749284744262695,-0.19632533192634583,0.32644185423851013
1791103777284310300,4.538310302734375,-0.2562812566757202,-0.1620619148015976,-0.40583741664886475
1791103777294282500,4.548282470703125,-0.3172377049922943,-0.21247099339962006,0.021783651784062386
1791103777304254500,4.55825439453125,-0.3581222891807556,-0.24519245326519012,0.19056521356105804
1791103777314226400,4.568226318359375,-0.24069058895111084,-0.18742574751377106,-0.008171924389898777
1791103777324198400,4.578198486328125,-0.14946001768112183,-0.25762853026390076,0.24065732955932617
1791103777334169300,4.58816943359375,-0.283240407705307,-0.1912594735622406,0.2365039736032486
1791103777344141600,4.5981416015625,-0.19770580530166626,-0.23542773723602295,0.21488842368125916
1791103777354113300,4.60811328125,-0.20538270473480225,-0.21151073276996613,-0.1004822701215744
1791103777364084500,4.61808447265625,-0.24330103397369385,-0.09738442301750183,-0.2544585168361664
1791103777374056700,4.628056640625,-0.18977783620357513,-0.0903850644826889,-0.01600922830402851
1791103777384028700,4.638028564453125,-0.03232989460229874,-0.2445724904537201,0.08214983344078064
1791103777394000600,4.648000732421875,0.02863278053700924,-0.20559167861938477,-0.30138954520225525
1791103777403972600,4.65797265625,-0.147960364818573,-0.21138112246990204,-0.032157037407159805
1791103777413943600,4.667943603515625,-0.24238941073417664,-0.133026123046875,-0.018274512141942978
1791103777423915500,4.67791552734375,-0.12221212685108185,-0.1762995570898056,-0.2793673574924469
1791103777433887500,4.687887451171875,-0.3940904438495636,-0.20371893048286438,-0.06085781380534172
1791103777443859500,4.697859375,-0.1623360514640808,-0.2560012936592102,0.3682461380958557
1791103777453831700,4.707831787109375,-0.043381594121456146,-0.07597635686397552,-0.0691060796380043
1791103777463803600,4.7178037109375,-0.09022898972034454,-0.15191373229026794,0.09910023957490921
1791103777473775600,4.727775634765625,-0.2834317684173584,-0.21313263475894928,0.10228605568408966
1791103777483747600,4.73774755859375,-0.13981866836547852,-0.2625816762447357,-0.023706501349806786
1791103777493718500,4.747718505859375,-0.09532438218593597,-0.16431978344917297,0.11349234730005264
1791103777503690500,4.7576904296875,-0.062070827931165695,-0.15948933362960815,0.025694314390420914
1791103777513662500,4.767662353515625,-0.02730277180671692,-0.16129644215106964,0.05161554738879204
1791103777523634700,4.777634765625,-0.03222562372684479,-0.1596495360136032,0.14656975865364075
1791103777533606700,4.787606689453125,-0.020970139652490616,-0.25409790873527527,0.3018280863761902
1791103777543578600,4.79757861328125,0.00020944885909557343,-0.27120792865753174,-0.03509587422013283
1791103777553550600,4.807550537109375,-0.060712069272994995,-0.18470188975334167,0.05943576246500015
1791103777563521500,4.817521484375,-0.15222999453544617,-0.1694829910993576,-0.08860749751329422
1791103777573493500,4.827493408203125,-0.023543842136859894,-0.17540712654590607,-0.2464045137166977
1791103777583465500,4.837465576171875,0.056591469794511795,-0.11927834153175354,0.08623497188091278
1791103777593437700,4.847437744140625,0.10418720543384552,-0.18133920431137085,0.08514322340488434
1791103777603409400,4.857409423828125,-0.06940269470214844,-0.1831994205713272,0.22886469960212708
1791103777613381600,4.867381591796875,0.1041157990694046,-0.2832418978214264,0.32875311374664307
1791103777623353600,4.877353515625,-0.11344102770090103,-0.16319139301776886,-0.007941564545035362
1791103777633325600,4.88732568359375,0.0985356792807579,-0.1618531495332718,-0.09106414765119553
1791103777643296500,4.897296630859375,-0.13375109434127808,-0.1349909007549286,0.1937428116798401
1791103777653268500,4.9072685546875,-0.0008687125518918037,-0.1612013578414917,0.20061500370502472
1791103777663240700,4.91724072265625,-0.0254928320646286,-0.10013773292303085,0.09866572171449661
1791103777673212400,4.92721240234375,0.1934521198272705,-0.028022991493344307,-0.32824715971946716
1791103777683184600,4.9371845703125,0.10820166766643524,-0.12244297564029694,0.3908713161945343
1791103777693156600,4.947156494140625,0.18969252705574036,-0.004240058828145266,-0.3272611200809479
1791103777703128600,4.957128662109375,0.1100032776594162,-0.022590570151805878,0.10684745013713837
1791103777713100500,4.9671005859375,0.06537866592407227,0.09544268250465393,-0.12288035452365875
1791103777723071500,4.977071533203125,0.15531334280967712,-0.019099341705441475,-0.07200119644403458
1791103777733043700,4.987043701171875,0.26001647114753723,0.1309991329908371,-0.33438265323638916
1791103777743015400,4.997015380859375,0.14404618740081787,0.04002554342150688,0.01655431091785431
1791103777752987600,5.006987548828125,0.10637951642274857,-0.027704104781150818,0.11947403103113174
1791103777762959400,5.01695947265625,0.04633988440036774,-0.0025223197881132364,-0.3217640817165375
1791103777772931600,5.026931640625,-0.006077992729842663,-0.032574985176324844,0.02880481258034706
1791103777782903600,5.036903564453125,0.054686289280653,-0.13745559751987457,0.20851118862628937
1791103777792874500,5.04687451171875,0.06814143061637878,-0.0502932108938694,0.005192390643060207
1791103777802846700,5.0568466796875,-0.01620541140437126,-0.09423644095659256,0.0028378895949572325
1791103777812818400,5.066818359375,-0.09087706357240677,-0.08145146816968918,-0.3032749891281128
1791103777822790700,5.076790771484375,-0.15047381818294525,-0.08562836796045303,0.047741904854774475
1791103777832762400,5.086762451171875,0.008560463786125183,-0.06342485547065735,-0.06650485098361969
1791103777842734600,5.096734619140625,0.08151723444461823,-0.046321235597133636,-0.25975847244262695
1791103777852706600,5.10670654296875,0.05863107368350029,-0.007596604526042938,-0.1600491851568222
1791103777862678500,5.116678466796875,-0.027438297867774963,-0.011839820072054863,0.01886836811900139
1791103777872649700,5.126649658203125,0.0585734099149704,-0.0026626470498740673,-0.12662988901138306
1791103777882621400,5.136621337890625,0.11762687563896179,-0.0032075296621769667,-0.29762402176856995
1791103777892593700,5.14659375,0.14375492930412292,-0.0376492403447628,-0.09744420647621155
1791103777902565400,5.1565654296875,0.06025097519159317,-0.0009151957929134369,-0.1237594336271286
1791103777912537600,5.16653759765625,0.05457605794072151,-0.020610176026821136,-0.03297508507966995
1791103777922509600,5.176509521484375,-0.008152836002409458,-0.009745011106133461,0.10241283476352692
1791103777932481500,5.1864814453125,0.03682360053062439,-0.000021740328520536423,-0.015351957641541958
1791103777942452700,5.19645263671875,0.10275094211101532,0.027659956365823746,-0.02718198671936989
1791103777952424400,5.206424560546875,0.1437833309173584,0.02972230687737465,-0.11064891517162323
1791103777962396700,5.216396728515625,-0.003910616040229797,0.02328898012638092,0.17490258812904358
1791103777972368400,5.226368408203125,0.029346253722906113,0.022807272151112556,0.4223310947418213
1791103777982340600,5.236340576171875,0.008002081885933876,0.09400448203086853,-0.26038116216659546
1791103777992312600,5.2463125,0.15475332736968994,-0.010225700214505196,0.16860848665237427
1791103778002284500,5.256284423828125,0.03455207496881485,0.049909807741642,0.09793910384178162
1791103778012256500,5.266256591796875,-0.025774382054805756,0.0027758521027863026,0.06043354049324989
1791103778022227500,5.2762275390625,-0.07546497136354446,0.03197528049349785,0.03159470483660698
1791103778032199700,5.28619970703125,0.14829155802726746,-0.04918047785758972,0.06803546100854874
1791103778042171400,5.29617138671875,0.09151936322450638,-0.009081792086362839,-0.3729698956012726
1791103778052143600,5.3061435546875,-0.06545434892177582,-0.03251461684703827,0.03267470747232437
1791103778062115600,5.316115478515625,-0.0965358316898346,-0.12159256637096405,0.37625551223754883
1791103778072087600,5.326087646484375,-0.01229556929320097,-0.1136237382888794,-0.2948073744773865
1791103778082059500,5.3360595703125,-0.07892972230911255,-0.17241966724395752,0.0941944271326065
1791103778092030500,5.346030517578125,-0.12226881831884384,-0.20233380794525146,0.254871666431427
1791103778102002700,5.356002685546875,-0.10916659981012344,-0.16030700504779816,-0.23219414055347443
1791103778111974400,5.365974365234375,-0.10151740163564682,-0.1666715145111084,0.12300705909729004
1791103778121946600,5.375946533203125,-0.12500329315662384,-0.13833972811698914,0.08828050643205643
1791103778131918600,5.385918701171875,0.013843797147274017,-0.147433802485466,-0.2738130986690521
1791103778141890600,5.395890625,0.03725165128707886,-0.060726597905159,-0.1312253326177597
1791103778151862500,5.405862548828125,0.07122261077165604,-0.13561522960662842,0.1103200688958168
1791103778161834500,5.41583447265625,0.0631076991558075,-0.0789112076163292,-0.29151204228401184
1791103778171805700,5.4258056640625,0.04542676731944084,-0.08521237224340439,-0.010907717049121857
1791103778181777400,5.43577734375,-0.07090676575899124,-0.13491228222846985,0.2592625319957733
1791103778191749600,5.44574951171875,-0.06116374582052231,-0.15460120141506195,-0.08118540793657303
1791103778201721600,5.4557216796875,0.02898346073925495,-0.15990009903907776,0.01627376675605774
1791103778211693600,5.465693603515625,0.015724491328001022,-0.136372372508049,0.019871653988957405
1791103778221665500,5.47566552734375,0.08271443843841553,-0.12901565432548523,-0.17149963974952698
1791103778231637500,5.485637451171875,-0.0028260350227355957,-0.08209116011857986,-0.04381198063492775
1791103778241608700,5.495608642578125,0.06457484513521194,-0.11949525773525238,0.14406605064868927
1791103778251580400,5.505580322265625,0.1127203106880188,-0.07767682522535324,0.04680032655596733
1791103778261552600,5.515552734375,0.1131562665104866,-0.11476107686758041,-0.15934139490127563
1791103778271524600,5.525524658203125,0.01937018521130085,-0.12366221100091934,-0.19327159225940704
1791103778281496600,5.53549658203125,-0.06419208645820618,-0.11805466562509537,-0.0031320054549723864
1791103778291468500,5.545468505859375,0.06827408820390701,-0.20360501110553741,0.15484419465065002
1791103778301440500,5.5554404296875,0.12794621288776398,-0.09155437350273132,-0.3167664706707001
1791103778311412500,5.56541259765625,0.07670421898365021,-0.18721342086791992,0.25559374690055847
1791103778321383400,5.575383544921875,0.04889256879687309,-0.10010568797588348,-0.12865297496318817
1791103778331355600,5.585355712890625,0.06794144213199615,-0.1915929615497589,-0.06429348140954971
1791103778341327600,5.59532763671875,0.10005756467580795,-0.1822660267353058,0.1243203803896904
1791103778351299600,5.605299560546875,0.0009508971124887466,-0.15134887397289276,-0.27838829159736633
1791103778361272600,5.6152724609375,0.0978928878903389,-0.1596861630678177,0.25504472851753235
1791103778371244500,5.62524462890625,0.18502137064933777,-0.08585301041603088,-0.21615605056285858
1791103778381216500,5.635216552734375,0.08771345764398575,-0.12852537631988525,-0.08809289336204529
1791103778391187700,5.645187744140625,0.14839453995227814,-0.09155699610710144,-0.20381467044353485
1791103778401159400,5.655159423828125,0.10420071333646774,-0.15519481897354126,0.09083375334739685
1791103778411131600,5.665131591796875,0.14557114243507385,-0.09178599715232849,-0.0858403891324997
1791103778421103400,5.675103271484375,0.2496831715106964,-0.11141295731067657,-0.04069128632545471
1791103778431075600,5.68507568359375,0.12603333592414856,-0.027794400230050087,-0.34281620383262634
1791103778441047600,5.695047607421875,0.10197033733129501,-0.21912309527397156,0.5544120669364929
1791103778451019500,5.70501953125,0.25064289569854736,-0.005850889720022678,-0.42902594804763794
1791103778460991700,5.71499169921875,0.3468639850616455,0.08842820674180984,-0.19957543909549713
1791103778470962400,5.72496240234375,0.21665512025356293,-0.11222273856401443,0.5311911702156067
1791103778480934700,5.7349345703125,0.3793409764766693,0.031575173139572144,-0.2441365271806717
1791103778490906400,5.74490625,0.27371618151664734,0.1071479320526123,0.16019901633262634
1791103778500878600,5.754878662109375,0.2016609162092209,0.07465416193008423,0.032702043652534485
1791103778510850600,5.7648505859375,0.18484807014465332,0.010424195788800716,0.23529669642448425
1791103778520822500,5.774822509765625,0.5187895894050598,0.21087047457695007,-0.3363944888114929
1791103778530794500,5.78479443359375,0.5293046236038208,0.13528229296207428,0.13264282047748566
1791103778540765400,5.794765380859375,0.21916566789150238,0.059685006737709045,-0.060863249003887177
1791103778550737700,5.804737548828125,0.17973692715168,0.01974579319357872,0.009822828695178032
1791103778560709400,5.81470947265625,0.4037593901157379,0.13886712491512299,-0.22227512300014496
1791103778570681600,5.824681640625,0.23903164267539978,0.021604228764772415,0.1989954560995102
1791103778580653600,5.834653564453125,0.23005865514278412,0.013077052310109138,-0.06804024428129196
1791103778590625500,5.84462548828125,0.24173583090305328,0.06914873421192169,-0.18391773104667664
1791103778600597500,5.854597412109375,0.269940048456192,0.0602915994822979,-0.042856212705373764
1791103778610568400,5.864568359375,0.17299669981002808,0.006766193080693483,0.08992820233106613
1791103778620540700,5.874540771484375,0.20201823115348816,-0.07490123808383942,0.20219136774539948
1791103778630512400,5.884512451171875,0.09080245345830917,-0.058441754430532455,0.11456859856843948
1791103778640484600,5.894484619140625,0.07571884244680405,-0.010461980476975441,0.12113861739635468
1791103778650456600,5.90445654296875,0.12749940156936646,0.012670468538999557,0.15274293720722198
1791103778660428500,5.914428466796875,0.23668287694454193,0.0008526905439794064,-0.08453594148159027
1791103778670400500,5.924400390625,0.2010488659143448,0.15339386463165283,-0.0456811785697937
1791103778680372500,5.93437255859375,0.23765109479427338,0.11119954288005829,0.15574806928634644
1791103778690343700,5.94434375,0.16924604773521423,0.04486675560474396,0.09842429310083389
1791103778700315400,5.9543154296875,0.3204107880592346,0.10895146429538727,-0.12714730203151703
1791103778710287600,5.96428759765625,0.23577317595481873,0.17758101224899292,0.08487850427627563
1791103778720259600,5.974259521484375,0.14262592792510986,0.17657087743282318,-0.1646341234445572
1791103778730231600,5.9842314453125,0.2658717930316925,0.24457275867462158,0.028204917907714844
1791103778740203500,5.99420361328125,0.2811780571937561,0.19910381734371185,0.16470523178577423
1791103778750175500,6.004175537109375,0.21669988334178925,0.2740677297115326,-0.3981824219226837
1791103778760146700,6.014146728515625,0.3946366012096405,0.150600403547287,0.47678714990615845
1791103778770118400,6.024118408203125,0.25927674770355225,0.41603928804397583,-0.4157571792602539
1791103778780090600,6.034090576171875,0.11183029413223267,0.1427621990442276,0.524492084980011
1791103778790062600,6.0440625,0.33650851249694824,0.32545197010040283,-0.3180163502693176
1791103778800034600,6.05403466796875,0.19691574573516846,0.24388252198696136,0.17374274134635925
1791103778810006500,6.064006591796875,0.15679165720939636,0.3085072934627533,0.3790850341320038
1791103778819978500,6.073978515625,0.27862250804901123,0.34512922167778015,-0.35540521144866943
1791103778829950500,6.083950439453125,0.15586446225643158,0.23714394867420197,0.26301759481430054
1791103778839921400,6.09392138671875,0.1328052282333374,0.23520436882972717,0.20562489330768585
1791103778849893600,6.1038935546875,0.16023766994476318,0.24691522121429443,-0.41241729259490967
1791103778859865600,6.113865478515625,0.015503382310271263,0.13478174805641174,0.2777062952518463
1791103778869837600,6.123837646484375,0.0625285655260086,0.15776850283145905,-0.08683261275291443
1791103778879809500,6.1338095703125,-0.038144782185554504,0.14572302997112274,-0.15481111407279968
1791103778889781500,6.143781494140625,-0.017298106104135513,0.08745905756950378,-0.20139408111572266
1791103778899753500,6.15375341796875,-0.10735262930393219,0.10223853588104248,-0.08194304257631302
1791103778909724400,6.163724365234375,-0.030222158879041672,0.02190322056412697,0.35630887746810913
1791103778919696600,6.173696533203125,-0.01380027737468481,0.09602990001440048,-0.20175066590309143
1791103778929668600,6.183668701171875,-0.154630646109581,-0.018902141600847244,0.33006367087364197
1791103778939640600,6.193640625,-0.10760428011417389,0.07885345071554184,0.06107296794652939
1791103778949612500,6.203612548828125,-0.1596374809741974,-0.00009003328159451485,0.1835050731897354
1791103778959584500,6.21358447265625,-0.12445633113384247,0.047519564628601074,-0.22863322496414185
1791103778969556500,6.223556396484375,-0.15104036033153534,0.03722591698169708,0.31994110345840454
1791103778979527400,6.23352734375,-0.03811301290988922,0.146416574716568,0.05153173208236694
1791103778989499600,6.243499755859375,-0.013015053234994411,0.11326636373996735,0.018390674144029617
1791103778999471600,6.2534716796875,0.0022651003673672676,0.1288599669933319,0.0633416399359703
1791103779009443600,6.263443603515625,-0.09294912219047546,0.20359724760055542,-0.2505021095275879
1791103779019415600,6.27341552734375,-0.08238860964775085,0.19195471704006195,0.2934999465942383
1791103779029387500,6.283387451171875,-0.0516064316034317,0.18788611888885498,-0.1359500139951706
1791103779039359500,6.293359375,-0.0050192223861813545,0.13780272006988525,0.013560118153691292
1791103779049331700,6.303331787109375,-0.004663828760385513,0.1652720719575882,0.00371315679512918
1791103779059302700,6.313302734375,-0.0370958037674427,0.12282209098339081,0.0807991549372673
1791103779069274600,6.323274658203125,-0.10585886240005493,0.053350090980529785,-0.14591564238071442
1791103779079246600,6.33324658203125,-0.17655780911445618,0.1078527420759201,0.3117576539516449
1791103779089218600,6.343218505859375,-0.08898676931858063,0.19193866848945618,-0.18675076961517334
1791103779099190500,6.3531904296875,0.010442351922392845,0.14387314021587372,0.2108333557844162
1791103779109162500,6.36316259765625,0.15678708255290985,0.25246915221214294,0.07060366123914719
1791103779119134700,6.373134765625,0.1021328791975975,0.2788224518299103,0.1839563250541687
1791103779129105700,6.383105712890625,0.11738254874944687,0.267244428396225,-0.009467017836868763
1791103779139077600,6.39307763671875,0.05545446276664734,0.24424351751804352,0.1041700690984726
1791103779149049600,6.403049560546875,0.06848687678575516,0.19296257197856903,0.11277264356613159
1791103779159021600,6.413021484375,-0.015836529433727264,0.20866137742996216,-0.43170982599258423
1791103779168993500,6.42299365234375,0.09885171800851822,0.22068090736865997,0.15594659745693207
1791103779178965500,6.432965576171875,-0.09959638863801956,0.24737511575222015,0.04166049882769585
1791103779188937700,6.442937744140625,0.012411619536578655,0.18354962766170502,-0.15753553807735443
1791103779198908700,6.45290869140625,0.03237786889076233,0.1530311405658722,0.09981770068407059
1791103779208880600,6.462880615234375,-0.04483870416879654,0.08646965026855469,0.23375903069972992
1791103779218852600,6.4728525390625,-0.09412582963705063,0.06298723071813583,-0.16016936302185059
1791103779228824600,6.482824462890625,-0.17148545384407043,-0.06876300275325775,0.37648335099220276
1791103779238796500,6.492796630859375,-0.0477488674223423,0.0004477621987462044,0.05370476096868515
1791103779248768500,6.5027685546875,-0.08384892344474792,-0.02936558425426483,0.04458575323224068
1791103779258740700,6.51274072265625,-0.13499920070171356,-0.05975571274757385,-0.03108823299407959
1791103779268712400,6.52271240234375,-0.0632556676864624,-0.0745437815785408,0.04799627512693405
1791103779278683600,6.53268359375,0.05698871240019798,0.01271841675043106,-0.4645381271839142
1791103779288655600,6.542655517578125,-0.21441176533699036,0.04307746887207031,0.28678321838378906
1791103779298627600,6.552627685546875,0.013036035001277924,-0.041445404291152954,-0.02351154200732708
1791103779308599600,6.562599609375,-0.06151769682765007,0.04292095825076103,-0.5680338144302368
1791103779318571500,6.572571533203125,-0.2478228658437729,-0.07617028057575226,0.3761785328388214
1791103779328543700,6.582543701171875,-0.19822150468826294,-0.11409430205821991,0.021931689232587814
1791103779338515500,6.592515380859375,-0.21078205108642578,-0.05496574193239212,-0.5087228417396545
1791103779348486700,6.602486572265625,-0.25462156534194946,-0.09309705346822739,0.6040229797363281
1791103779358458600,6.612458740234375,-0.049224212765693665,0.05458614602684975,-0.004434215370565653
1791103779368430300,6.622430419921875,0.019577765837311745,0.03984391689300537,-0.2631241977214813
1791103779378402300,6.63240234375,0.05390777811408043,0.11853446066379547,-0.08491292595863342
1791103779388374300,6.642374267578125,0.04964881390333176,0.15463495254516602,0.043732136487960815
1791103779398346500,6.652346435546875,0.11422434449195862,0.03385873883962631,0.11808093637228012
1791103779408318200,6.662318115234375,0.020220443606376648,0.10830894112586975,-0.23550795018672943
1791103779418289400,6.672289306640625,-0.05750923976302147,0.10800827294588089,0.07603448629379272
1791103779428261400,6.682261474609375,0.009880845434963703,0.08885030448436737,-0.33664101362228394
1791103779438233300,6.6922333984375,-0.06717878580093384,0.07283911108970642,-0.0003857524134218693
1791103779448205300,6.702205322265625,0.0326341912150383,-0.011518547311425209,0.16338473558425903
1791103779458177300,6.71217724609375,-0.07066929340362549,0.08944854885339737,-0.40701884031295776
1791103779468149500,6.7221494140625,-0.08671950548887253,-0.05736324563622475,0.3340837061405182
1791103779478121200,6.732121337890625,-0.04159996658563614,-0.014034414663910866,0.055633995682001114
1791103779488092400,6.742092529296875,-0.16217221319675446,0.02700730785727501,-0.19919750094413757
1791103779498064400,6.752064453125,-0.055750712752342224,-0.0815170407295227,0.12817317247390747
1791103779508036400,6.762036376953125,-0.06809163093566895,0.05543858930468559,-0.17779546976089478
1791103779518008300,6.77200830078125,-0.012656869366765022,0.009155245497822762,0.09969526529312134
1791103779527980300,6.781980224609375,0.03711327537894249,-0.01623866707086563,0.09794918447732925
1791103779537952500,6.791952392578125,0.021858952939510345,0.049328356981277466,-0.17708584666252136
1791103779547924200,6.80192431640625,-0.02932792156934738,-0.034554511308670044,0.33869367837905884
1791103779557895400,6.8118955078125,-0.007918770425021648,0.0540403351187706,-0.05779878795146942
1791103779567867400,6.821867431640625,-0.02729463391005993,0.02127920649945736,-0.026587340980768204
1791103779577839400,6.83183935546875,-0.08953989297151566,0.04136556386947632,0.014447711408138275
1791103779587811300,6.841811279296875,0.06451552361249924,0.03917498514056206,-0.07254033535718918
1791103779597783300,6.851783203125,0.03493047133088112,0.11979526281356812,-0.03643213212490082
1791103779607755500,6.861755615234375,0.08708331733942032,-0.04587801918387413,0.3408624529838562
1791103779617727200,6.871727294921875,-0.00023853778839111328,0.01808525249361992,0.055856022983789444
1791103779627699500,6.881699462890625,0.031300272792577744,0.041377801448106766,0.009687311947345734
1791103779637670400,6.89167041015625,-0.06249279901385307,0.033859167248010635,0.15324687957763672
1791103779647642400,6.901642333984375,-0.01877693459391594,0.04698995500802994,0.014230472967028618
1791103779657614300,6.9116142578125,-0.05078413337469101,0.05182785168290138,0.1301557421684265
1791103779667586300,6.92158642578125,0.08378743380308151,-0.0018174643628299236,0.17016594111919403
1791103779677558500,6.93155859375,0.08092879503965378,-0.018997516483068466,-0.004368586000055075
1791103779687530200,6.9415302734375,0.0441528744995594,0.04463311284780502,0.018148325383663177
1791103779697502500,6.95150244140625,-0.07471705228090286,0.04978499934077263,0.530661940574646
1791103779707473200,6.96147314453125,0.08838247507810593,-0.004893924575299025,0.3818815052509308
1791103779717445400,6.9714453125,0.08326121419668198,0.048286471515893936,-0.09974879026412964
1791103779727417300,6.981417236328125,-0.06750994920730591,-0.035786617547273636,0.7903327941894531
1791103779737389300,6.991389404296875,0.06071407347917557,0.05354272946715355,0.03397693857550621
1791103779747361500,7.001361572265625,0.023999225348234177,0.030177775770425797,0.021906008943915367
1791103779757333200,7.011333251953125,0.1092267706990242,0.09554160386323929,0.23277297616004944
1791103779767305500,7.021305419921875,0.09958627820014954,0.11973503232002258,-0.051400505006313324
1791103779777276200,7.031276123046875,0.07442153990268707,0.19637921452522278,-0.44264256954193115
1791103779787248400,7.041248291015625,-0.07836869359016418,0.1738814115524292,0.18118327856063843
1791103779797220400,7.051220458984375,0.1589362770318985,0.09566144645214081,0.12847159802913666
1791103779807192300,7.0611923828125,0.2450716644525528,0.13198108971118927,-0.38641953468322754
1791103779817164500,7.07116455078125,0.012115909717977047,0.10740809142589569,-0.21730348467826843
1791103779827136300,7.08113623046875,0.05516677349805832,-0.03781789913773537,0.17852449417114258
1791103779837108500,7.0911083984375,0.27377796173095703,0.12591217458248138,-1.2396292686462402
1791103779847079200,7.1010791015625,-0.3890928030014038,-0.08567415922880173,1.2413339614868164
1791103779857051400,7.111051513671875,0.018480289727449417,0.12685567140579224,-0.4620310664176941
1791103779867023000,7.121023193359375,-0.1474204808473587,0.04194146767258644,0.29404526948928833
1791103779876995300,7.130995361328125,-0.03915659710764885,-0.00933610089123249,0.35071176290512085
1791103779886967300,7.14096728515625,0.04361859709024429,-0.004829024896025658,-0.3389274775981903
1791103779896939300,7.150939208984375,-0.08983533829450607,0.013982214033603668,0.0782356709241867
1791103779906911500,7.160911376953125,-0.04526286944746971,0.005816418211907148,-0.21710102260112762
1791103779916882200,7.170882080078125,-0.022765018045902252,0.0014504319988191128,-0.45562943816185
1791103779926854400,7.1808544921875,-0.07079926133155823,0.03513678163290024,-0.10971814393997192
1791103779936826000,7.190826171875,-0.09616667032241821,-0.028628351166844368,-0.09711020439863205
1791103779946798300,7.20079833984375,-0.1114470437169075,0.013933802023530006,-0.36472728848457336
1791103779956770300,7.210770263671875,-0.06053139641880989,-0.08520103991031647,0.14535832405090332
1791103779966742300,7.2207421875,-0.050736162811517715,0.021668339148163795,-0.488432914018631
1791103779976714500,7.230714599609375,-0.20826293528079987,-0.03902962803840637,0.21592311561107635
1791103779986686200,7.240686279296875,-0.25886499881744385,0.04921482503414154,-0.21377772092819214
1791103779996657400,7.250657470703125,-0.18662221729755402,0.014844335615634918,0.14909420907497406
1791103780006629000,7.260629150390625,-0.05566056817770004,0.06089659035205841,0.15657255053520203
1791103780016601300,7.270601318359375,-0.031907837837934494,0.0323011614382267,-0.3618226647377014
1791103780026573300,7.2805732421875,-0.19886347651481628,0.041893504559993744,0.009449644014239311
1791103780036545300,7.290545166015625,0.02527003362774849,0.05824611335992813,-0.0386960469186306
1791103780046517200,7.300517333984375,0.05211660638451576,0.08971790969371796,-0.041394248604774475
1791103780056489200,7.3104892578125,-0.016186285763978958,0.15199725329875946,-0.20380951464176178
1791103780066460400,7.32046044921875,-0.14236155152320862,0.07622510939836502,0.15321587026119232
1791103780076432100,7.33043212890625,-0.10367940366268158,0.09113641083240509,-0.30964207649230957
1791103780086404400,7.340404296875,-0.07719241827726364,0.03035872057080269,0.05346941575407982
1791103780096376300,7.350376220703125,0.006263593211770058,0.09403090178966522,-0.4191197156906128
1791103780106348300,7.360348388671875,-0.16285118460655212,-0.061818286776542664,0.4067371189594269
1791103780116320300,7.3703203125,-0.15994594991207123,0.08401188999414444,-0.13582521677017212
1791103780126292200,7.380292236328125,-0.23844695091247559,0.037165045738220215,0.2384820580482483
1791103780136263400,7.390263427734375,-0.05050448328256607,0.0989447832107544,0.03708716481924057
1791103780146235100,7.400235107421875,0.028859227895736694,0.07420195639133453,0.2755955457687378
1791103780156207400,7.410207275390625,0.0962691605091095,0.11128674447536469,0.009206457994878292
1791103780166179300,7.420179443359375,0.01205496396869421,0.09101568162441254,0.07814744114875793
1791103780176151300,7.4301513671875,-0.0331101194024086,0.10576747357845306,-0.06392980366945267
1791103780186123300,7.440123291015625,-0.02677471749484539,0.070152647793293,0.15894360840320587
1791103780196095200,7.45009521484375,-0.009829554706811905,0.054053306579589844,0.17954128980636597
1791103780206066400,7.46006640625,-0.005275264382362366,0.06961508095264435,-0.2715297341346741
1791103780216038100,7.4700380859375,-0.17830218374729156,0.025849223136901855,-0.07993128895759583
1791103780226010400,7.48001025390625,-0.1621374487876892,-0.11694502085447311,0.1285170614719391
1791103780235982300,7.489982421875,-0.15096868574619293,-0.0876007154583931,-0.2336539328098297
1791103780245954300,7.499954345703125,-0.17755135893821716,-0.21471570432186127,0.3122749328613281
1791103780255926300,7.50992626953125,-0.20084230601787567,-0.2344484031200409,-0.0648539587855339
1791103780265898200,7.519898193359375,-0.2698114216327667,-0.2897772192955017,-0.25720202922821045
1791103780275869400,7.529869384765625,-0.3884592354297638,-0.29695895314216614,-0.03051668219268322
1791103780285841200,7.539841064453125,-0.35458460450172424,-0.3403840661048889,0.019725831225514412
1791103780295813400,7.5498134765625,-0.3672252893447876,-0.2825130224227905,-0.2896868586540222
1791103780305785300,7.559785400390625,-0.2556464672088623,-0.31358101963996887,-0.015336473472416401
1791103780315757300,7.56975732421875,-0.20235289633274078,-0.22630150616168976,-0.06271970272064209
1791103780325729300,7.579729248046875,-0.08370241522789001,-0.23358328640460968,-0.0393441841006279
1791103780335701200,7.589701171875,-0.13321644067764282,-0.21965521574020386,0.0691673755645752
1791103780345672400,7.59967236328125,-0.14744989573955536,-0.20659899711608887,0.1528777927160263
1791103780355644200,7.60964404296875,-0.10498952120542526,-0.1354723572731018,-0.11352486163377762
1791103780365615900,7.619615966796875,-0.05308518186211586,-0.17878812551498413,0.13360312581062317
1791103780375587800,7.629587890625,0.01702333241701126,-0.05849206820130348,0.18389374017715454
1791103780385559800,7.639559814453125,0.027134720236063004,-0.022230995818972588,0.4907070994377136
1791103780395531800,7.64953173828125,0.20340296626091003,0.11888778209686279,-0.064081571996212
1791103780405503700,7.659503662109375,0.17539677023887634,0.031432706862688065,0.25992944836616516
1791103780415475000,7.669474853515625,0.2628991901874542,0.06450943648815155,-0.1948513686656952
1791103780425446700,7.67944677734375,0.1984323114156723,0.0658862292766571,0.0531504824757576
1791103780435419000,7.6894189453125,0.17842797935009003,0.15120059251785278,0.0694732591509819
1791103780445390800,7.699390869140625,0.15161021053791046,0.09589914977550507,0.1293734610080719
1791103780455362800,7.70936279296875,0.09099188446998596,0.1279526799917221,-0.07858932018280029
1791103780465334800,7.719334716796875,0.14778511226177216,0.11579951643943787,0.08038658648729324
1791103780475306800,7.729306640625,0.22931833565235138,0.11854017525911331,-0.049693118780851364
1791103780485278700,7.73927880859375,0.14422430098056793,0.042521342635154724,0.2610095739364624
1791103780495249700,7.749249755859375,0.04294801875948906,0.07105525583028793,0.1328127384185791
1791103780505222000,7.759221923828125,0.08625553548336029,0.10784053057432175,0.018408289179205894
1791103780515193900,7.76919384765625,-0.003400578163564205,0.008394368924200535,0.2800489366054535
1791103780525165800,7.779165771484375,0.014780402183532715,0.01809605583548546,0.04927786439657211
1791103780535137800,7.7891376953125,0.021746965125203133,-0.0005604522302746773,0.1686258316040039
1791103780545109800,7.79910986328125,0.07357161492109299,0.05301735922694206,-0.26481369137763977
1791103780555081000,7.8090810546875,0.026798252016305923,-0.00981486402451992,0.25287365913391113
1791103780565052700,7.819052734375,0.054118357598781586,0.04185090214014053,0.08682926744222641
1791103780575025000,7.82902490234375,0.14161331951618195,-0.005912892520427704,0.016587596386671066
1791103780584996900,7.838996826171875,0.030753489583730698,-0.04222067445516586,-0.09692329168319702
1791103780594968800,7.84896875,-0.11016155034303665,-0.06979024410247803,0.5766157507896423
1791103780604940800,7.85894091796875,-0.005086556077003479,-0.0560491606593132,0.024028586223721504
1791103780614912800,7.868912841796875,-0.009921525605022907,-0.09525009244680405,0.23156419396400452
1791103780624884000,7.878884033203125,0.10002942383289337,-0.003872327972203493,-0.30179041624069214
1791103780634855700,7.888855712890625,-0.0067042093724012375,-0.016821416094899178,0.08797091990709305
1791103780644828000,7.898827880859375,-0.007603065110743046,-0.009934164583683014,-0.041829485446214676
1791103780654800000,7.9087998046875,0.04162893071770668,-0.009528566151857376,-0.2079572081565857
1791103780664771800,7.918771728515625,0.038651272654533386,-0.05691523104906082,0.1428656429052353
1791103780674743800,7.928743896484375,0.0577021948993206,-0.12434620410203934,0.3600959777832031
1791103780684715800,7.9387158203125,0.04924459010362625,-0.09445231407880783,-0.3025451600551605
1791103780694687700,7.948687744140625,-0.0912182405591011,-0.099342942237854,0.16302627325057983
1791103780704658700,7.95865869140625,-0.14426128566265106,-0.12138742953538895,-0.038962479680776596
1791103780714631000,7.968630859375,-0.15140920877456665,-0.1751396209001541,0.09927874803543091
1791103780724603000,7.978602783203125,-0.08082719147205353,-0.1442457139492035,-0.1462896317243576
1791103780734574800,7.988574951171875,0.06351693719625473,-0.1821395605802536,-0.22568219900131226
1791103780744546800,7.998546875,-0.027932770550251007,-0.18540647625923157,0.04415835440158844
1791103780754518800,8.008518798828124,-0.027065910398960114,-0.16702958941459656,-0.17274145781993866
1791103780764490800,8.01849072265625,-0.03445320948958397,-0.19105099141597748,0.03396559879183769
1791103780774461700,8.028461669921874,0.014686372131109238,-0.14368879795074463,-0.17121870815753937
1791103780784434000,8.038433837890626,-0.13862018287181854,-0.31245407462120056,0.4765722155570984
1791103780794406000,8.048406005859375,-0.06165323033928871,-0.18469743430614471,-0.47696536779403687
1791103780804377900,8.0583779296875,-0.22883276641368866,-0.21626822650432587,0.6579914093017578
1791103780814349800,8.068349853515626,0.02571243792772293,-0.13122868537902832,-0.8145795464515686
1791103780824321800,8.07832177734375,-0.08287446945905685,-0.17760559916496277,-0.14400871098041534
1791103780834293800,8.088293701171875,-0.02521144412457943,-0.24369166791439056,0.3613775074481964
1791103780844264700,8.0982646484375,0.028841786086559296,-0.1034473106265068,-0.14430354535579681
1791103780854237000,8.10823681640625,0.08151671290397644,-0.016543041914701462,-0.11895398795604706
1791103780864209000,8.118208984375,0.16751030087471008,-0.007906781509518623,-0.14013546705245972
1791103780874180900,8.128180908203126,0.013959882780909538,-0.00957019254565239,0.12399045377969742
1791103780884152800,8.13815283203125,0.2372749000787735,0.05787166208028793,-0.03474802523851395
1791103780894124800,8.148124755859374,0.2536035478115082,0.04174329340457916,0.027070334181189537
1791103780904096800,8.1580966796875,0.2446962147951126,0.05518500879406929,-0.4144972860813141
1791103780914067700,8.168067626953125,0.11931566894054413,0.07019351422786713,-0.10996562242507935
1791103780924040000,8.1780400390625,0.26100867986679077,0.08518876135349274,-0.12146279960870743
1791103780934012000,8.188011962890625,0.2884847819805145,0.0736045390367508,-0.16208532452583313
1791103780943983900,8.19798388671875,0.24749989807605743,0.10239268094301224,-0.23548394441604614
1791103780953955800,8.207955810546874,0.19080118834972382,0.019009370356798172,0.1709490567445755
1791103780963927800,8.217927734375,0.15686357021331787,0.03118406981229782,-0.09923680871725082
1791103780973899800,8.227899658203125,0.09507637470960617,-0.022955067455768585,0.22215932607650757
1791103780983870700,8.23787060546875,0.0890301987528801,-0.038471173495054245,-0.1520257294178009
1791103780993843000,8.247843017578125,0.10606697201728821,0.044093210250139236,-0.13504888117313385
1791103781003815000,8.25781494140625,0.23066923022270203,0.05278158560395241,0.1175481453537941
1791103781013787000,8.267786865234376,0.3774096667766571,0.05960593372583389,-0.025431642308831215
1791103781023758800,8.2777587890625,0.32319512963294983,0.11625970900058746,-0.19452928006649017
1791103781033730800,8.287730712890625,0.31553828716278076,0.1497095376253128,-0.08256866037845612
1791103781043702800,8.297702880859376,0.28496819734573364,0.2107560634613037,-0.0058029647916555405
1791103781053673700,8.307673828125,0.32567116618156433,0.11960776895284653,0.15546129643917084
1791103781063646000,8.31764599609375,0.3173208236694336,0.23365940153598785,-0.34986943006515503
1791103781073618000,8.327617919921876,0.3016696870326996,0.22802628576755524,0.3264174461364746
1791103781083590000,8.33758984375,0.4663127660751343,0.31719648838043213,-0.07156295329332352
1791103781093561900,8.347561767578124,0.45546624064445496,0.26661452651023865,0.09233037382364273
1791103781103533800,8.357533935546876,0.3553988039493561,0.2532171607017517,0.26092788577079773
1791103781113505800,8.367505859375,0.298730731010437,0.2882981598377228,-0.03126776963472366
1791103781123476700,8.377476806640624,0.30039650201797485,0.33417579531669617,-0.2352888137102127
1791103781133449000,8.387448974609375,0.4793601334095001,0.3018316924571991,0.18103304505348206
1791103781143421000,8.3974208984375,0.543575644493103,0.2794009745121002,0.02638445608317852
1791103781153393000,8.407392822265624,0.4196920692920685,0.34148165583610535,-0.22956156730651855
1791103781163364900,8.41736474609375,0.23521734774112701,0.2554454803466797,0.4336434006690979
1791103781173336800,8.4273369140625,0.3390588164329529,0.25938162207603455,0.17004399001598358
1791103781183308800,8.437308837890624,0.27029743790626526,0.2764753997325897,0.14089272916316986
1791103781193279700,8.44727978515625,0.21565894782543182,0.17480069398880005,0.2673089802265167
1791103781203251700,8.457251708984375,0.21969081461429596,0.15068930387496948,0.20015612244606018
1791103781213224000,8.467223876953126,0.21808172762393951,0.22470839321613312,-0.10264607518911362
1791103781223196000,8.47719580078125,0.29558390378952026,0.21943651139736176,-0.015585439279675484
1791103781233168000,8.48716796875,0.3115149140357971,0.20406821370124817,-0.05601488798856735
1791103781243139800,8.497139892578126,0.17133046686649323,0.1482367366552353,0.20789577066898346
1791103781253111800,8.50711181640625,0.11875540018081665,0.18790744245052338,-0.1623786985874176
1791103781263082800,8.517082763671874,0.055055879056453705,0.16056036949157715,-0.11182218790054321
1791103781273054700,8.5270546875,0.019951418042182922,0.16548295319080353,0.08627518266439438
1791103781283027000,8.53702685546875,0.02344224601984024,0.1679835170507431,-0.0799194946885109
1791103781292999000,8.5469990234375,0.040251318365335464,0.14476501941680908,-0.10703127831220627
1791103781302971000,8.556970947265626,0.05354970693588257,0.15685321390628815,-0.06610431522130966
1791103781312942800,8.56694287109375,0.06525642424821854,0.10074573755264282,0.1622692048549652
1791103781322914800,8.576914794921874,0.016360901296138763,0.07838775962591171,-0.11973657459020615
1791103781332885800,8.5868857421875,-0.11049265414476395,-0.002186980564147234,0.3171970844268799
1791103781342857700,8.596857666015625,-0.11790061742067337,0.0968184694647789,0.07429423183202744
1791103781352830000,8.606829833984374,-0.08548568189144135,0.01525943074375391,0.2610265612602234
1791103781362802200,8.61680224609375,-0.08659755438566208,0.08916807919740677,-0.11877008527517319
1791103781372774100,8.626774169921875,-0.03792695328593254,0.03700980171561241,0.2984849214553833
1791103781382746000,8.63674609375,-0.17485754191875458,0.051668670028448105,0.01567956805229187
1791103781392718000,8.646718017578126,-0.10367152094841003,0.0036614625714719296,-0.23199574649333954
1791103781402689300,8.656689208984375,-0.06683962047100067,0.14602941274642944,-0.067106693983078
1791103781412661000,8.666660888671874,-0.1200471818447113,0.15607433021068573,-0.09634047746658325
1791103781422633200,8.67663330078125,-0.02259737253189087,0.1693117916584015,-0.2199007272720337
1791103781432605200,8.686605224609375,-0.05437421053647995,0.1627071499824524,-0.025263329967856407
1791103781442577200,8.6965771484375,0.024070844054222107,0.146678164601326,-0.1200585886836052
1791103781452549000,8.706549072265625,-0.022462036460638046,0.15130673348903656,-0.03506167232990265
1791103781462521000,8.71652099609375,0.020672384649515152,0.20774923264980316,-0.0420394204556942
1791103781472492300,8.7264921875,-0.050797611474990845,0.27217182517051697,0.18294888734817505
1791103781482464000,8.736464111328125,-0.025066718459129333,0.2461508810520172,-0.049065448343753815
1791103781492436200,8.746436279296875,0.11546162515878677,0.18942555785179138,-0.08558431267738342
1791103781502408200,8.756408203125,-0.008584756404161453,0.25465163588523865,-0.15999630093574524
1791103781512380200,8.766380126953125,0.008944169618189335,0.268523246049881,-0.17214031517505646
1791103781522352000,8.77635205078125,0.002838968299329281,0.17436622083187103,0.13986410200595856
1791103781532324000,8.786323974609376,0.05664680525660515,0.20896893739700317,-0.3188227713108063
1791103781542295300,8.79629541015625,-0.030760183930397034,0.16426673531532288,0.1783643215894699
1791103781552267000,8.80626708984375,-0.028655219823122025,0.204021617770195,-0.2050616294145584
1791103781562239200,8.8162392578125,-0.16292910277843475,0.0954732894897461,0.3913551867008209
1791103781572211200,8.826211181640625,-0.15020984411239624,0.11848166584968567,0.07163547724485397
1791103781582183200,8.83618310546875,-0.3089996576309204,0.05195462703704834,0.001238090917468071
1791103781592155100,8.846155029296876,-0.21473945677280426,0.05519942194223404,0.14519499242305756
1791103781602127000,8.856127197265625,-0.20292018353939056,0.047559455037117004,-0.11629409343004227
1791103781612098300,8.866098388671874,-0.18359334766864777,-0.022379683330655098,-0.103565514087677
1791103781622070000,8.876070068359375,-0.21626225113868713,-0.042185552418231964,0.14610697329044342
1791103781632042200,8.886042236328125,-0.1395333856344223,0.01831693761050701,-0.22623756527900696
1791103781642014200,8.89601416015625,-0.3028574287891388,-0.013035816140472889,0.1896108090877533
1791103781651986200,8.905986083984375,-0.20196305215358734,0.026604803279042244,0.123351089656353
1791103781661958100,8.915958251953125,-0.2579367160797119,0.021488497033715248,0.2481827437877655
1791103781671930000,8.92593017578125,-0.24372902512550354,-0.0105165746062994,-0.04261580482125282
1791103781681901300,8.9359013671875,-0.2537042200565338,0.038658786565065384,0.033187385648489
1791103781691873000,8.945873046875,-0.37362930178642273,-0.07566885650157928,0.5416572690010071
1791103781701845200,8.95584521484375,-0.06045205518603325,-0.029600320383906364,-0.37042608857154846
1791103781711817200,8.965817138671875,-0.24911437928676605,-0.014127088710665703,0.4346533417701721
1791103781721789200,8.9757890625,-0.10204807668924332,0.08318033069372177,-0.42563575506210327
1791103781731761200,8.98576123046875,-0.3102199137210846,0.08824619650840759,-0.06696493178606033
1791103781741732000,8.995732177734375,-0.19521097838878632,0.018284332007169724,-0.04207746684551239
1791103781751704300,9.005704345703125,-0.12110398709774017,0.04341232031583786,-0.09048254787921906
1791103781761676000,9.015676025390626,-0.30636030435562134,-0.013742253184318542,0.3474128544330597
1791103781771648300,9.025648193359375,-0.18860089778900146,0.020828241482377052,-0.3527287244796753
1791103781781620200,9.0356201171875,-0.26859360933303833,-0.03513054922223091,0.13259367644786835
1791103781791592200,9.04559228515625,-0.1912897676229477,0.023621181026101112,-0.37667328119277954
1791103781801564200,9.055564208984375,-0.4779856503009796,-0.15382073819637299,0.5971022844314575
1791103781811535000,9.06553515625,-0.2104455679655075,-0.08803532272577286,-0.09421256929636002
1791103781821507300,9.07550732421875,-0.285367488861084,-0.07575401663780212,-0.15270383656024933
1791103781831479000,9.08547900390625,-0.3072493374347687,-0.1895623356103897,0.3936780095100403
1791103781841451300,9.095451171875,-0.2784079611301422,-0.18053510785102844,-0.1253483146429062
1791103781851423200,9.10542333984375,-0.3752570152282715,-0.17972658574581146,0.18545883893966675
1791103781861395200,9.115395263671875,-0.25421977043151855,-0.12254470586776733,-0.02243650332093239
1791103781871367200,9.1253671875,-0.21163423359394073,-0.1206863522529602,-0.21689893305301666
1791103781881338000,9.135338134765625,-0.249067485332489,-0.14683867990970612,-0.1717529445886612
1791103781891310300,9.145310302734375,-0.2241394966840744,-0.22802141308784485,0.0743497684597969
1791103781901282000,9.155281982421876,-0.2569747269153595,-0.11061622947454453,-0.16424082219600677
1791103781911254300,9.165254150390625,-0.18951314687728882,-0.14656731486320496,0.05105897784233093
1791103781921226200,9.175226318359375,-0.15358099341392517,-0.14927789568901062,-0.2741144299507141
1791103781931198200,9.1851982421875,-0.3478516638278961,-0.15405799448490143,0.26495227217674255
1791103781941170200,9.195170166015625,-0.1638554483652115,-0.18513110280036926,0.09730120003223419
1791103781951141000,9.20514111328125,-0.14144548773765564,-0.08878300338983536,-0.2995348274707794
1791103781961113000,9.215113037109376,-0.2240642011165619,-0.21702192723751068,0.8045459389686584
1791103781971085000,9.2250849609375,-0.096196249127388,-0.10823472589254379,-0.4985142648220062
1791103781981057300,9.235057373046875,-0.2052500993013382,-0.18196648359298706,0.05965171009302139
1791103781991029200,9.245029296875,-0.10159028321504593,-0.11220764368772507,-0.2432572990655899
1791103782001001200,9.255001220703125,-0.14142701029777527,-0.10524723678827286,0.06927453726530075
1791103782010973200,9.26497314453125,-0.14599965512752533,-0.15776610374450684,0.1049497127532959
1791103782020944100,9.274944091796876,-0.1345951110124588,-0.10948099195957184,-0.19548162817955017
1791103782030916000,9.284916015625,-0.18232321739196777,-0.08471865206956863,0.20406150817871094
1791103782040888000,9.29488818359375,-0.07115467637777328,-0.1324228048324585,0.06281664967536926
1791103782050860300,9.3048603515625,-0.06288716197013855,-0.10723356157541275,-0.11697041988372803
1791103782060832300,9.314832275390625,-0.23320569097995758,-0.22258269786834717,0.3170585632324219
1791103782070804200,9.32480419921875,-0.08786474168300629,-0.12279272079467773,0.036148324608802795
1791103782080776200,9.334776123046876,-0.10134395956993103,-0.07004459947347641,-0.22877103090286255
1791103782090747100,9.3447470703125,-0.14507973194122314,-0.11474788933992386,0.12164370715618134
1791103782100719000,9.354718994140624,-0.14231827855110168,-0.07967755943536758,0.02132657915353775
1791103782110691000,9.364691162109375,-0.08907634764909744,-0.05440229922533035,-0.07290085405111313
1791103782120663000,9.3746630859375,-0.07834365963935852,-0.03551894426345825,-0.002903733868151903
1791103782130635300,9.38463525390625,-0.03368377685546875,-0.049368180334568024,-0.0013428551610559225
1791103782140607200,9.394607177734375,-0.11391348391771317,-0.08860638737678528,0.48204952478408813
1791103782150579200,9.4045791015625,0.03858870267868042,-0.05564790964126587,-0.28664422035217285
1791103782160550100,9.414550048828126,-0.08424795418977737,-0.13596948981285095,-0.059716690331697464
1791103782170522000,9.424522216796875,-0.17741277813911438,-0.13119710981845856,0.033668648451566696
1791103782180494000,9.434494140625,-0.10956081748008728,-0.10364605486392975,-0.06821175664663315
1791103782190466000,9.444466064453126,-0.05233640968799591,-0.10682214051485062,-0.07825373858213425
1791103782200438300,9.454438232421875,-0.06322012841701508,-0.060803551226854324,-0.14928288757801056
1791103782210410200,9.46441015625,0.014066142961382866,-0.15372443199157715,0.10426255315542221
1791103782220382200,9.47438232421875,0.04721038043498993,-0.08290503919124603,-0.36601343750953674
1791103782230353200,9.484353271484375,-0.041918959468603134,-0.09661339968442917,-0.07246649265289307
1791103782240325000,9.4943251953125,-0.039131294935941696,-0.10560388118028641,-0.14744681119918823
1791103782250297000,9.504297119140626,-0.016448620706796646,-0.12241588532924652,-0.006272634491324425
1791103782260269000,9.51426904296875,-0.03128529340028763,-0.1997937560081482,0.3963282108306885
1791103782270241300,9.5242412109375,0.047861725091934204,-0.11608501523733139,-0.28977611660957336
1791103782280213000,9.534212890625,-0.07330726087093353,-0.14682210981845856,0.2628289461135864
1791103782290185200,9.544185302734375,-0.04495285823941231,-0.07493486255407333,-0.129930317401886
1791103782300156200,9.55415625,0.092472143471241,-0.11740602552890778,0.1648658961057663
1791103782310128000,9.564128173828125,0.16084054112434387,-0.037190020084381104,-0.0325385145843029
1791103782320100400,9.574100341796875,0.11920474469661713,0.06312983483076096,-0.030979005619883537
1791103782330072000,9.584072021484374,0.18807116150856018,0.0804654136300087,0.0766310766339302
1791103782340044300,9.594044189453125,0.3545229732990265,0.16091592609882355,-0.24993319809436798
1791103782350016000,9.60401611328125,0.34797000885009766,0.12624582648277283,0.3130660057067871
1791103782359987200,9.6139873046875,0.4100905954837799,0.13635222613811493,-0.1991681307554245
1791103782369959200,9.623959228515625,0.3147992193698883,0.11371883004903793,-0.10614151507616043
1791103782379931100,9.63393115234375,0.23705612123012543,0.10799823701381683,0.1517277956008911
1791103782389903400,9.6439033203125,0.22063720226287842,0.08770494908094406,-0.08823925256729126
1791103782399875000,9.653875,0.2040375918149948,0.08308131247758865,0.11989971995353699
1791103782409847300,9.663847412109375,0.18782906234264374,0.14640648663043976,-0.01186896488070488
1791103782419819000,9.673819091796876,0.28375443816185,0.11676223576068878,0.023224767297506332
1791103782429790200,9.683790283203125,0.1832435578107834,0.1592167466878891,-0.3846186399459839
1791103782439762200,9.69376220703125,0.19009828567504883,0.11416707932949066,0.18922045826911926
1791103782449734100,9.703734130859376,0.22710105776786804,0.16912567615509033,-0.10658030211925507
1791103782459706400,9.713706298828125,0.2035824954509735,0.1322064995765686,-0.06326636672019958
1791103782469678000,9.723677978515624,0.13447479903697968,0.07079160958528519,0.1616160124540329
1791103782479650300,9.733650390625,0.10027673095464706,0.12552431225776672,-0.09219343960285187
1791103782489622000,9.7436220703125,0.0376807264983654,0.025890136137604713,0.24279414117336273
1791103782499593200,9.75359326171875,0.009316504001617432,0.039738088846206665,-0.17897871136665344
1791103782509565200,9.763565185546875,-0.008568487130105495,0.005239768885076046,0.23139257729053497
1791103782519537200,9.773537109375,0.030871596187353134,0.10507075488567352,-0.12195111066102982
1791103782529509400,9.78350927734375,-0.006469915620982647,0.0567421093583107,0.05288274586200714
1791103782539481000,9.793481201171875,0.0092898765578866,0.11523161083459854,-0.14127299189567566
1791103782549453300,9.803453369140625,-0.08026290684938431,0.019639313220977783,0.17967599630355835
1791103782559425000,9.813425048828124,0.017079688608646393,0.08695301413536072,-0.03853972628712654
1791103782569396200,9.823396240234375,0.010397019796073437,0.15171736478805542,-0.2938798666000366
1791103782579368200,9.8333681640625,-0.06693126261234283,0.12756213545799255,0.34232741594314575
1791103782589340200,9.843340087890626,0.0037040291354060173,0.15558099746704102,0.051612768322229385
1791103782599312400,9.8533125,-0.0027361642569303513,0.12907515466213226,0.0787295252084732
1791103782609284000,9.8632841796875,-0.0034533534198999405,0.19599533081054688,-0.19665729999542236
1791103782619256300,9.87325634765625,-0.07240036875009537,0.16678006947040558,-0.017015520483255386
1791103782629228000,9.88322802734375,0.07456164807081223,0.17594081163406372,-0.04687754809856415
1791103782639199200,9.89319921875,0.07372747361660004,0.19468651711940765,-0.26537618041038513
1791103782649171200,9.903171142578126,0.03669595718383789,0.18929655849933624,0.036371953785419464
1791103782659143200,9.91314306640625,0.007624220568686724,0.12919387221336365,0.0482889860868454
1791103782669115400,9.923115478515625,-0.08241964876651764,0.09855873882770538,0.013038055039942265
1791103782679087000,9.933087158203126,-0.09033545106649399,0.11094330251216888,-0.31614843010902405
1791103782689059300,9.943059326171875,-0.23749133944511414,-0.03799877315759659,0.18617035448551178
1791103782699030300,9.9530302734375,-0.2601684629917145,-0.09310319274663925,0.06267652660608292
1791103782709002200,9.963002197265626,-0.30692771077156067,-0.13737237453460693,0.062191300094127655
1791103782718974200,9.97297412109375,-0.3386370837688446,-0.14085866510868073,-0.2631044387817383
1791103782728946200,9.9829462890625,-0.5130690932273865,-0.2036922127008438,0.2568974792957306
1791103782738918400,9.99291845703125,-0.40446844696998596,-0.2206737995147705,0.11719851195812225
1791103782748890000,10.00289013671875,-0.39044663310050964,-0.2405625581741333,-0.12590175867080688
1791103782758862300,10.0128623046875,-0.38698840141296387,-0.1913040429353714,-0.14652317762374878
1791103782768833300,10.022833251953125,-0.4163183271884918,-0.17273381352424622,-0.05170399323105812
1791103782778805200,10.03280517578125,-0.4751434028148651,-0.16846279799938202,0.3478460907936096
1791103782788777200,10.042777099609374,-0.2215910404920578,-0.11464910954236984,-0.17996685206890106
1791103782798749200,10.052749267578125,-0.31789955496788025,-0.05730995163321495,0.20135684311389923
1791103782808721400,10.062721435546875,-0.24867016077041626,-0.03828353062272072,0.24259056150913239
1791103782818693000,10.072693115234374,-0.1269424557685852,0.0003269445151090622,-0.005941194482147694
1791103782828665300,10.082665283203125,-0.13681825995445251,0.05189080536365509,-0.07987640053033829
1791103782838636000,10.092635986328125,-0.054418619722127914,0.055145177990198135,0.05015335977077484
1791103782848608300,10.102608154296876,-0.06644785404205322,0.10213931649923325,0.11932843178510666
1791103782858580200,10.112580322265625,-0.02272757701575756,0.12391529977321625,0.04325459524989128
1791103782868552200,10.12255224609375,-0.033114440739154816,0.14880041778087616,-0.07944709807634354
1791103782878524400,10.1325244140625,-0.1441163569688797,0.09548760205507278,0.1855325847864151
1791103782888496000,10.14249609375,-0.15112419426441193,0.08897510170936584,0.21797414124011993
1791103782898468400,10.15246826171875,-0.15821920335292816,0.07805614173412323,-0.27940431237220764
1791103782908439000,10.16243896484375,-0.24056707322597504,-0.06618891656398773,0.3525749742984772
1791103782918411300,10.172411376953125,-0.24551419913768768,-0.03277116268873215,0.024853933602571487
1791103782928383200,10.18238330078125,-0.2849481403827667,-0.08144442737102509,-0.06765229254961014
1791103782938355200,10.192355224609376,-0.3524239957332611,-0.05636562407016754,-0.07989758998155594
1791103782948327400,10.202327392578125,-0.396513968706131,-0.08677759021520615,0.3027437925338745
1791103782958299100,10.212299072265624,-0.24008230865001678,-0.09760721772909164,0.08307710289955139
1791103782968271400,10.222271240234376,-0.25906506180763245,-0.07777838408946991,-0.24477027356624603
1791103782978242000,10.232241943359375,-0.3141033947467804,-0.10481371730566025,0.19943855702877045
1791103782988214300,10.24221435546875,-0.28581103682518005,-0.03012828901410103,-0.21624918282032013
1791103782998186000,10.25218603515625,-0.365639865398407,-0.05338486284017563,-0.13355271518230438
1791103783008158200,10.262158203125,-0.3195362985134125,-0.05317367613315582,-0.07868600636720657
1791103783018130200,10.272130126953124,-0.2927401065826416,-0.03282136097550392,-0.06375967711210251
1791103783028102100,10.28210205078125,-0.26259392499923706,-0.01855108141899109,-0.16947944462299347
1791103783038073300,10.2920732421875,-0.32576316595077515,0.023219285532832146,-0.12210983037948608
1791103783048045000,10.302045166015626,-0.2568115293979645,-0.05216814577579498,0.0055836825631558895
1791103783058017300,10.312017333984375,-0.29200923442840576,0.03552054241299629,-0.32839441299438477
1791103783067989000,10.321989013671875,-0.3735720217227936,-0.02413240261375904,0.06399974226951599
1791103783077961200,10.331961181640626,-0.308362752199173,-0.01061272993683815,-0.14454559981822968
1791103783087933200,10.34193310546875,-0.37694501876831055,-0.06442216783761978,0.19271819293498993
1791103783097905200,10.3519052734375,-0.3836834728717804,-0.04313816875219345,0.029350796714425087
1791103783107876400,10.36187646484375,-0.43819332122802734,-0.1567656695842743,0.38377147912979126
1791103783117848000,10.37184814453125,-0.4199756383895874,-0.14428551495075226,0.11644624173641205
1791103783127820300,10.3818203125,-0.4291372001171112,-0.16053372621536255,0.0002184357726946473
1791103783137792000,10.3917919921875,-0.445709764957428,-0.160910964012146,-0.07335511595010757
1791103783147764200,10.40176416015625,-0.5068919062614441,-0.16218741238117218,-0.0254304651170969
1791103783157736200,10.411736083984374,-0.44964566826820374,-0.227260559797287,0.18294617533683777
1791103783167708200,10.421708251953126,-0.4073543846607208,-0.21618500351905823,-0.1904553771018982
1791103783177679400,10.431679443359375,-0.5409510731697083,-0.3091103136539459,0.12837231159210205
1791103783187651000,10.441651123046874,-0.6061916351318359,-0.2654038369655609,-0.23022685945034027
1791103783197623300,10.451623291015625,-0.6378158330917358,-0.37364572286605835,0.08755680173635483
1791103783207595000,10.461594970703125,-0.7638667225837708,-0.416596382856369,0.08071593940258026
1791103783217567200,10.471567138671874,-0.7339514493942261,-0.43038642406463623,-0.16050291061401367
1791103783227539200,10.481539306640625,-0.7354332208633423,-0.3575846552848816,-0.1566288024187088
1791103783237511200,10.49151123046875,-0.6633684039115906,-0.38455674052238464,-0.05215217173099518
1791103783247482400,10.501482421875,-0.5750859379768372,-0.34272462129592896,-0.28040584921836853
1791103783257454000,10.5114541015625,-0.6534717679023743,-0.34974244236946106,0.10888355225324631
1791103783267426300,10.52142626953125,-0.6446407437324524,-0.3701550364494324,0.0894523337483406
1791103783277398000,10.53139794921875,-0.5787487626075745,-0.35093003511428833,-0.09244240820407867
1791103783287370200,10.541370361328125,-0.6944191455841064,-0.37952330708503723,0.2649348974227905
1791103783297342200,10.55134228515625,-0.613523542881012,-0.40290045738220215,0.1466040462255478
1791103783307313200,10.561313232421876,-0.6480231881141663,-0.40640705823898315,0.3173941373825073
1791103783317285400,10.571285400390625,-0.612756609916687,-0.3920056223869324,0.07676145434379578
1791103783327257000,10.581257080078124,-0.655795693397522,-0.402793288230896,0.29095232486724854
1791103783337229300,10.591229248046876,-0.6328392624855042,-0.33742788434028625,0.19026301801204681
1791103783347201000,10.601200927734375,-0.5574015378952026,-0.382762610912323,0.0157343577593565
1791103783357173200,10.61117333984375,-0.6068903207778931,-0.3874385952949524,-0.06498579680919647
1791103783367144700,10.621144775390626,-0.6733593344688416,-0.37824270129203796,0.04707496240735054
1791103783377115600,10.63111572265625,-0.6079350113868713,-0.41218695044517517,-0.09379623830318451
1791103783387088000,10.641087890625,-0.562892735004425,-0.3658064007759094,-0.4665279984474182
1791103783397059800,10.651059814453125,-0.7008407115936279,-0.4147288203239441,-0.024640342220664024
1791103783407031800,10.66103173828125,-0.6562586426734924,-0.38916274905204773,-0.045581575483083725
1791103783417003800,10.671003662109374,-0.7465398907661438,-0.4618067145347595,0.29780468344688416
1791103783426975700,10.680975830078125,-0.744875967502594,-0.47816702723503113,0.03025287762284279
1791103783436947700,10.69094775390625,-0.7186365127563477,-0.5261580944061279,-0.15447358787059784
1791103783446918700,10.700918701171876,-0.7418006658554077,-0.5360012054443359,0.08594487607479095
1791103783456891000,10.710890869140625,-0.7549976706504822,-0.5832759737968445,0.16446083784103394
1791103783466862800,10.72086279296875,-0.6782805323600769,-0.6029391884803772,0.034165408462285995
1791103783476834800,10.730834716796876,-0.6684451103210449,-0.5936239361763,0.04403025284409523
1791103783486806800,10.740806884765625,-0.637349545955658,-0.6200201511383057,-0.4673991799354553
1791103783496778800,10.75077880859375,-0.7317483425140381,-0.5933219194412231,0.055436331778764725
1791103783506750700,10.760750732421876,-0.5909414291381836,-0.5992786288261414,0.042409747838974
1791103783516721700,10.7707216796875,-0.5695536136627197,-0.6156612634658813,-0.13499630987644196
1791103783526694000,10.78069384765625,-0.5865461826324463,-0.5876844525337219,-0.03671953082084656
1791103783536665900,10.790665771484376,-0.5200555920600891,-0.5552201867103577,-0.12066765874624252
1791103783546637800,10.800637939453125,-0.6423620581626892,-0.6527150273323059,0.42867162823677063
1791103783556609800,10.81060986328125,-0.6139417290687561,-0.5850375294685364,-0.22973483800888062
1791103783566581800,10.820581787109376,-0.8165422081947327,-0.637373149394989,0.4458068907260895
1791103783576553000,10.830552978515625,-0.7470632195472717,-0.6089438199996948,0.48178449273109436
1791103783586524700,10.840524658203124,-0.6962392330169678,-0.6133111119270325,0.3447304964065552
1791103783596497000,10.850496826171875,-0.5525033473968506,-0.6360743045806885,0.28211870789527893
1791103783606468900,10.86046875,-0.5075113773345947,-0.5744546055793762,0.223590686917305
1791103783616440800,10.87044091796875,-0.3073823153972626,-0.5296059846878052,-0.02395024523139
1791103783626412800,10.880412841796876,-0.2595468759536743,-0.44703197479248047,-0.2363908737897873
1791103783636384800,10.890384765625,-0.2747882902622223,-0.2652450203895569,-0.019824020564556122
1791103783646356000,10.90035595703125,-0.24433478713035583,-0.30783164501190186,0.25348126888275146
1791103783656327700,10.91032763671875,-0.20963379740715027,-0.2934895157814026,-0.2273787558078766
1791103783666300000,10.9202998046875,-0.2909177541732788,-0.27122601866722107,0.2293192744255066
1791103783676271900,10.93027197265625,-0.1616942435503006,-0.3347109258174896,-0.05331247299909592
1791103783686243800,10.940243896484375,-0.19550760090351105,-0.4239550530910492,-0.09981739521026611
1791103783696215800,10.9502158203125,-0.33379924297332764,-0.46782588958740234,0.32921069860458374
1791103783706187800,10.960187744140624,-0.33207377791404724,-0.37383174896240234,-0.023297546431422234
1791103783716159000,10.970158935546875,-0.2875126898288727,-0.3700803220272064,-0.016355859115719795
1791103783726130700,10.980130615234375,-0.27444323897361755,-0.3716028332710266,0.043447818607091904
1791103783736103000,10.99010302734375,-0.2656993269920349,-0.3482777178287506,-0.07668041437864304
1791103783746075000,11.000074951171875,-0.40578827261924744,-0.4140434265136719,0.07481057941913605
1791103783756046800,11.010046875,-0.5261282324790955,-0.4925958812236786,0.3470616340637207
1791103783766018800,11.020018798828126,-0.3719932436943054,-0.46029359102249146,0.19276688992977142
1791103783775989800,11.02998974609375,-0.42099329829216003,-0.5131974220275879,0.3660276234149933
1791103783785962000,11.0399619140625,-0.513314425945282,-0.5527001023292542,0.45522379875183105
1791103783795933700,11.04993359375,-0.5831871628761292,-0.551325261592865,0.6792736053466797
1791103783805906000,11.059906005859375,-0.4865442216396332,-0.5872835516929626,0.5416361093521118
1791103783815878000,11.0698779296875,-0.3442041575908661,-0.5785159468650818,0.26272764801979065
1791103783825849900,11.079849853515626,-0.27503839135169983,-0.4927123188972473,-0.13758377730846405
1791103783835821800,11.08982177734375,-0.39921924471855164,-0.4361448287963867,-0.2609592080116272
1791103783845792800,11.099792724609374,-0.3762010335922241,-0.32321295142173767,-0.3866406977176666
1791103783855765000,11.109764892578125,-0.2830253839492798,-0.3733091950416565,-0.2514384984970093
1791103783865736700,11.11973681640625,-0.34926220774650574,-0.42110148072242737,-0.15335479378700256
1791103783875709000,11.129708984375,-0.4372361898422241,-0.48890039324760437,-0.11926615983247757
1791103783885681000,11.139680908203125,-0.5951326489448547,-0.5925575494766235,-0.13708482682704926
1791103783895652900,11.14965283203125,-0.5577160716056824,-0.6918604969978333,-0.10405972599983215
1791103783905624800,11.159624755859374,-0.6126541495323181,-0.7030577659606934,-0.08036664873361588
1791103783915595800,11.169595703125,-0.6118556261062622,-0.7397770285606384,-0.13191932439804077
1791103783925567700,11.179567626953125,-0.8344658017158508,-0.7683674097061157,-0.08815611898899078
1791103783935539700,11.189539794921876,-0.8264268636703491,-0.8405780792236328,-0.38766828179359436
1791103783945512000,11.199511962890625,-0.687380313873291,-0.7922654151916504,-0.4376920163631439
1791103783955484000,11.20948388671875,-0.7346792817115784,-0.7755995988845825,0.08748702704906464
1791103783965456000,11.219455810546876,-0.7358713150024414,-0.7022004723548889,0.08561588823795319
1791103783975426800,11.2294267578125,-0.8583229780197144,-0.6549031734466553,-0.05895483121275902
1791103783985398800,11.239398681640624,-0.6958626508712769,-0.7105139493942261,0.01697641611099243
1791103783995370800,11.249370849609376,-0.6766452789306641,-0.6480391025543213,0.2418583631515503
1791103784005342700,11.2593427734375,-0.4179905951023102,-0.6024590730667114,-0.10958514362573624
1791103784015315000,11.26931494140625,-0.4886746108531952,-0.6083542704582214,0.3528386950492859
1791103784025287000,11.279286865234376,-0.179662823677063,-0.5452633500099182,0.04525309056043625
1791103784035259000,11.2892587890625,-0.27176913619041443,-0.5084872841835022,-0.31235066056251526
1791103784045229800,11.299229736328124,-0.15419241786003113,-0.43355101346969604,-0.22976255416870117
1791103784055201800,11.309201904296875,-0.17272229492664337,-0.3208597004413605,-0.16623437404632568
1791103784065173800,11.319173828125,-0.18119114637374878,-0.29948943853378296,-0.39442119002342224
1791103784075145700,11.329145751953124,-0.40776175260543823,-0.3044290244579315,-0.1651502102613449
1791103784085117700,11.33911767578125,-0.5011031627655029,-0.3096027672290802,0.259042352437973
1791103784095090000,11.34908984375,-0.4047076106071472,-0.48386552929878235,0.39351868629455566
1791103784105062000,11.359061767578124,-0.3967287838459015,-0.44979622960090637,-0.12255320698022842
1791103784115032800,11.36903271484375,-0.7239177823066711,-0.580687403678894,1.4012389183044434
1791103784125004800,11.3790048828125,-0.5102568864822388,-0.6007671356201172,0.34152403473854065
1791103784134976800,11.388976806640626,-0.5828310251235962,-0.6182571649551392,0.460064560174942
1791103784144948700,11.39894873046875,-0.5048608183860779,-0.5897932648658752,1.1107426881790161
1791103784154920700,11.408920654296875,-0.21656790375709534,-0.6786231994628906,0.4138796031475067
1791103784164893000,11.418892822265626,-0.16215765476226807,-0.6048302054405212,0.1520261913537979
1791103784174864000,11.42886376953125,-0.32728779315948486,-0.45925915241241455,0.39188581705093384
1791103784184835800,11.4388359375,-0.17475150525569916,-0.4917076528072357,0.40052616596221924
1791103784194807800,11.448807861328126,-0.165412038564682,-0.4297105371952057,0.10122516751289368
1791103784204779800,11.45877978515625,-0.20979201793670654,-0.40583372116088867,0.4501895308494568
1791103784214751700,11.468751708984374,-0.22433240711688995,-0.4629780352115631,0.3104339838027954
1791103784224723700,11.4787236328125,-0.22800756990909576,-0.6586719155311584,0.8624340295791626
1791103784234696000,11.488696044921875,-0.30117684602737427,-0.683214545249939,1.182941198348999
1791103784244667000,11.4986669921875,-0.0063750362023711205,-0.5347867608070374,-1.2650063037872314
1791103784254638800,11.508638916015625,-0.6018787026405334,-0.316931813955307,2.3073956966400146
1791103784264610800,11.51861083984375,-0.2383875995874405,-0.7376744747161865,-0.8350965976715088
1791103784274582800,11.528582763671874,-0.5013400316238403,-0.5327283143997192,1.537583827972412
1791103784284554800,11.5385546875,-0.12249629199504852,-0.5882877707481384,0.3379940986633301
1791103784294526700,11.548526611328125,-0.162570983171463,-0.6358879804611206,0.6267865896224976
1791103784304499000,11.5584990234375,-0.3291754126548767,-0.6683340668678284,0.7502472996711731
1791103784314470000,11.568469970703125,-0.44552189111709595,-0.7210153937339783,0.42325177788734436
1791103784324441900,11.57844189453125,-0.5487202405929565,-0.7591302394866943,0.4257897734642029
1791103784334413800,11.588413818359374,-0.5209434628486633,-0.7473104000091553,0.44663822650909424
1791103784344385800,11.5983857421875,-0.37891441583633423,-0.7257100343704224,0.09490203112363815
1791103784354357800,11.608357666015625,-0.4767320156097412,-0.7234572172164917,0.6211279034614563
1791103784364329700,11.618329833984374,-0.31708481907844543,-0.7046523690223694,0.37071001529693604
1791103784374300700,11.62830078125,-0.35776370763778687,-0.7214203476905823,0.2260611355304718
1791103784384273000,11.63827294921875,-0.36175206303596497,-0.6321157813072205,-0.24497641623020172
1791103784394244600,11.64824462890625,-0.3922024071216583,-0.6046128273010254,0.4223876893520355
1791103784404216800,11.658216796875,-0.14683496952056885,-0.5671887397766113,-0.45666852593421936
1791103784414188500,11.6681884765625,-0.43963122367858887,-0.5772525668144226,0.554821252822876
1791103784424160800,11.678160888671876,-0.23211239278316498,-0.4986765682697296,-0.06224619224667549
1791103784434132700,11.6881328125,-0.4408647418022156,-0.5352197289466858,0.28441160917282104
1791103784444103700,11.698103759765624,-0.2936238944530487,-0.5568826794624329,0.4335595369338989
1791103784454076000,11.708075927734376,-0.21089227497577667,-0.6436571478843689,0.20602276921272278
1791103784464047600,11.718047607421875,-0.16434714198112488,-0.7130215764045715,0.35275736451148987
1791103784474019800,11.728019775390624,-0.12489122152328491,-0.6861704587936401,0.020135000348091125
1791103784483991600,11.737991455078125,-0.054834913462400436,-0.5674124360084534,-0.23336143791675568
1791103784493963800,11.7479638671875,-0.15920202434062958,-0.45141729712486267,0.1526181697845459
1791103784503934700,11.757934814453124,0.015805203467607498,-0.5138577818870544,-0.049231335520744324
1791103784513906700,11.76790673828125,-0.0037118755280971527,-0.5039294958114624,-0.27778851985931396
1791103784523879000,11.77787890625,-0.10885347425937653,-0.6423400640487671,0.34423696994781494
1791103784533850600,11.7878505859375,-0.04837151616811752,-0.6484122276306152,-0.37968480587005615
1791103784543822800,11.79782275390625,-0.2494249790906906,-0.6533675789833069,-0.08420601487159729
1791103784553794600,11.807794677734375,-0.29497456550598145,-0.5534276366233826,0.19625383615493774
1791103784563766800,11.817766845703124,-0.19797343015670776,-0.5823814868927002,0.3449136018753052
1791103784573737700,11.82773779296875,-0.045111823827028275,-0.5967514514923096,0.17198462784290314
1791103784583709700,11.837709716796875,-0.04404602572321892,-0.5233986973762512,-0.1652599722146988
1791103784593682000,11.847681884765626,-0.1361304372549057,-0.5322279930114746,0.3166656494140625
1791103784603653600,11.857653564453125,-0.0888659879565239,-0.5879706144332886,0.3351176381111145
1791103784613625900,11.8676259765625,-0.04928058013319969,-0.5763183832168579,0.22847393155097961
1791103784623597600,11.87759765625,-0.09214895218610764,-0.4883776009082794,0.12814919650554657
1791103784633569800,11.88756982421875,-0.13292916119098663,-0.5357459187507629,0.5591803789138794
1791103784643540700,11.897540771484374,-0.05246441066265106,-0.5439960956573486,0.24203038215637207
1791103784653512700,11.9075126953125,-0.08499696850776672,-0.5035783648490906,0.33664819598197937
1791103784663485000,11.91748486328125,0.12128403037786484,-0.4325835704803467,0.19898194074630737
1791103784673456600,11.92745654296875,0.09479749947786331,-0.44520482420921326,0.25883209705352783
1791103784683428900,11.937428955078126,0.11618321388959885,-0.41440349817276,0.30532875657081604
1791103784693400600,11.947400634765625,0.07538706809282303,-0.4213724434375763,0.2620903253555298
1791103784703371800,11.957371826171874,-0.04490738362073898,-0.39482152462005615,0.03980373963713646
1791103784713343700,11.96734375,0.07622314989566803,-0.31650641560554504,-0.25706246495246887
1791103784723315700,11.977315673828125,0.10311281681060791,-0.1485840082168579,-0.15239998698234558
1791103784733288000,11.987287841796874,0.22315114736557007,-0.27194294333457947,0.7082304358482361
1791103784743259600,11.997259765625,0.4418778717517853,-0.32411107420921326,0.19036521017551422
1791103784753232000,12.00723193359375,0.23543238639831543,-0.2706577479839325,-0.49951300024986267
1791103784763203600,12.01720361328125,-0.07273794710636139,-0.29344242811203003,0.7517175674438477
1791103784773174800,12.0271748046875,0.11474499851465225,-0.4361836910247803,0.03013467788696289
1791103784783146500,12.037146484375,-0.0506916344165802,-0.4248460829257965,0.15405155718326569
1791103784793118700,12.04711865234375,-0.17382298409938812,-0.228376105427742,0.18858416378498077
1791103784803090700,12.057090576171875,0.12033088505268097,-0.3110893666744232,0.02219119481742382
1791103784813062700,12.067062744140625,0.2201652228832245,-0.2310139536857605,-0.009615065529942513
1791103784823035000,12.077034912109376,0.16377438604831696,-0.27474653720855713,0.35606488585472107
1791103784833006600,12.087006591796875,0.1175726056098938,-0.3395020663738251,-0.06633095443248749
1791103784842977800,12.096977783203124,0.08594144135713577,-0.3889942467212677,0.15749014914035797
1791103784852949500,12.106949462890626,0.10223226994276047,-0.3675704598426819,0.17915257811546326
1791103784862921700,12.116921630859375,-0.0260468777269125,-0.47330087423324585,0.35994312167167664
1791103784872893700,12.126893798828124,-0.16192574799060822,-0.37054353952407837,0.035475485026836395
1791103784882865700,12.13686572265625,-0.02838447317481041,-0.34688881039619446,0.16931158304214478
1791103784892838000,12.146837890625,0.12964844703674316,-0.2976566255092621,-0.10566318035125732
1791103784902808600,12.15680859375,0.04886358231306076,-0.2364441454410553,0.2687082886695862
1791103784912780800,12.16678076171875,0.10346651822328568,-0.21654221415519714,-0.08329499512910843
1791103784922752500,12.17675244140625,-0.014701665379106998,-0.23571431636810303,-0.1752406358718872
1791103784932724700,12.186724853515624,-0.07154784351587296,-0.2436343878507614,0.5300189852714539
1791103784942696700,12.19669677734375,0.09632744640111923,-0.147166445851326,0.00318792462348938
